sacc_lat, max_onset_offset, step1_y, PRACTICE, step2_time, onset_size, sacc_err, TRIAL_END, cond,FILE, jump_dx, jump_dy, onset_cond, RT, beep, saccade_latency, min_x, min_y, max_step2_offset, onset_angle, onset_offset, onset_dur, step2_dur, fix1_time, seq_trial_id, correct, max_x, max_y, jump_size, TRIAL_START, start_x, jump_angle, loc, start_time, after_fix, onset_angle_deg, step2_x, step2_y, accuracy, response, step1_time, TRIALID, fix2_dur, step2_angle, across_meridian, fix2_time, OUTLIER, step2_angle_deg, step1_lat, step1_x, max_fix_offset, quadrant, onset_y, max_step1_offset, start_y, onset_time, fix1_dur, first_sacc_lat, step1_dur, onset_x, sacc_lat_PERC, sacc_lat_MEDIAN, sacc_lat_GROUP, after_fix_PERC, after_fix_MEDIAN, after_fix_GROUP
334,-1,-2.704497,0,1577,0.5,5.0852936251,5142840, act,PP00,-5.308473,2.796446, clockwise,0,0,0,-8,-6,1.8810699451,2.356194,4.1772962474,50,750,0,0,1,8,6,6,5140265,-2.218543,2.6567441146, spa,5140506,240,135,-6.2710044136,-6.7569573508,3.0147294415,0,924,0,100,0,0,823,0,0,360,-7.527016,0.1279831321, same,-6.7569573508,1.0056763643,-5.500943,769,750,322,600,-6.2710044136,0,0,0,0,0,0
311,-1,-0.868743,0,2176,0.5,4.3850616826,5146537, mir,PP00,-1.152799,5.888214, clockwise,0,0,0,-8,-6,0.5135554316,2.356194,3.7214241181,50,750,0,334,1,8,6,6,5143373,-6.271002,1.764131651, spa,5143604,919,135,-3.903296906,-3.2364530591,1.3645618484,0,923,1,100,1.570796,1,822,0,90,281,-7.423801,0.0702089478, across_vert,-4.3892478678,0.780797469,-6.756957,769,750,240,1200,-9.7915099086,0,0,0,0,0,0
227,-1,2.132009,0,1589,0.5,3.8984655305,5149644, mir,PP00,-2.679488,5.368459, Counter,0,0,0,-8,-6,0.2250822276,3.926991,4.0707455652,50,750,0,249,1,8,6,6,5147069,-3.903295,2.0337371147, ret,5147298,335,225,-10.606756766,3.4764922207,1.1510721331,0,936,2,100,3.141593,1,824,0,180,265,-6.582783,0.2153866222, across_vert,0.7875243854,0.7106032833,-3.23645,770,750,223,600,-2.5588096998,0,0,0,0,0,0
260,-1,-1.382979,0,1276,0.5,4.4611884913,5152440, mir,PP00,3.519308,-4.859472, clockwise,0,0,0,-8,-6,0.4469262149,2.356194,3.7647046342,50,750,0,496,1,8,6,6,5150176,-10.606756,-0.9440021292, ret,5150408,83,135,-7.7575306311,-5.572369083,0.9855584832,0,923,3,100,3.141593,0,822,0,180,217,-7.087448,0.0151363828, same,2.8064108509,0.5234958855,3.476493,769,750,181,300,-6.4173639177,0,0,0,0,0,0
235,-1,-0.768143,0,1276,0.5,3.9886129589,5155238, act,PP00,3.594357,4.804227, clockwise,0,0,0,-8,-6,0.5295432156,2.356194,4.2006764117,50,750,0,110,1,8,6,6,5152973,-7.75753,0.9284703183, spa,5153204,112,135,-8.3624653367,-1.3730759473,1.9253802102,0,923,4,100,0,0,822,0,0,188,-4.163173,0.1002873636, same,-1.3730759473,1.295549631,-5.57237,770,750,156,300,-8.3624653367,0,0,0,0,0,0
271,-1,4.264148,0,1924,0.5,4.1153966856,5158683, mir,PP00,2.054674,5.637226, clockwise,0,1,0,-8,-6,0.6194820838,2.356194,4.3373343724,50,750,0,321,1,8,6,6,5155770,-8.362465,1.2212776178, ret,5156002,636,135,-2.4618408611,6.0554233918,1.8617824916,0,971,5,100,3.141593,1,870,0,180,264,-6.307791,0.4982357076, across_vert,2.4728739405,0.7440647002,-1.373078,817,750,222,900,-10.1537417594,0,0,0,0,0,0
291,-1,2.577477,0,1576,0.5,4.0775994056,5161780, act,PP00,-4.889159,-3.477948, clockwise,0,0,0,-8,-6,0.8822005613,2.356194,4.0251268998,50,750,0,534,1,8,6,6,5159215,-2.461842,-2.5232837101, ret,5159446,320,135,-8.0566084881,-1.6060762831,1.4374238279,0,923,6,100,4.712389,0,822,0,270,280,-7.351001,0.0253493311, same,1.8718694298,0.5298739355,6.055425,769,750,242,600,-3.1674477307,0,0,0,0,0,0
-1,-1,3.484571,0,0,0.5,0,5164624, mir,PP00,3.175737,5.090648, Counter,0,1,0,-8,-6,-1,3.926991,1.847257311,50,750,0,361,1,8,6,6,5162312,-8.056605,1.0130334205, ret,5162544,-98,225,0,0,7.5852059188,0,1323,7,100,3.141593,-1,869,0,180,398,-4.880868,5.426652682, undef,-0.6486211782,3.1585532368,-1.606077,818,750,343,300,-3.9234117775,0,0,0,0,0,0
230,-1,1.713274,0,1876,0.5,4.1403743899,5168667, mir,PP00,1.066303,-5.904489, Counter,0,0,0,-8,-6,0.7831757111,3.926991,4.2994926487,50,750,0,382,1,8,6,6,5165802,-5.838325,-1.392130105, ret,5166034,645,225,-1.2866243533,-0.7058174088,1.4881952772,0,923,8,100,3.141593,1,822,0,180,255,-4.772022,0.0886209896, across_vert,4.1323666162,0.6163985765,7.617763,770,750,218,900,-8.2574188087,0,0,0,0,0,0
-1,-1,-5.459614,0,0,0.5,0,5171515, act,PP00,-3.660797,-4.753795, clockwise,0,1,0,-8,-6,-1,2.356194,2.9082676735,50,750,0,385,1,8,6,6,5169200,-1.286625,-2.2270245456, ret,5169431,-650,135,0,0,6.6970629166,0,926,9,100,4.712389,-1,824,0,270,950,-4.947422,0.1085252339, undef,-4.9131170744,7.5885376828,-0.705819,770,750,297,300,-0.7401258243,0,0,0,0,0,0
-1,-1,-3.66962,0,0,0.5,0,5174781, act,PP00,0.180317,5.997289, Counter,0,1,0,-8,-6,-1,3.926991,4.0121020059,50,750,0,609,1,8,6,6,5172469,-4.400922,1.5407389635, ret,5172700,-564,225,0,0,6.1385108611,0,923,10,100,1.570796,-1,822,0,90,864,-4.220605,0.3544490469, undef,-6.7584229152,6.7840618141,-9.666909,769,750,203,300,-1.3121180134,0,0,0,0,0,0
225,-1,3.991609,0,1879,0.5,4.3242563028,5179742, mir,PP00,3.662164,4.752742, Counter,0,0,0,-8,-6,0.8747033973,3.926991,4.1660909501,50,750,0,48,1,8,6,6,5176875,-1.131802,0.9142805176, ret,5177106,621,225,1.9850707852,8.1990616131,1.7473122457,0,925,11,100,3.141593,0,824,0,180,279,2.530362,0.2149583352, same,-0.2158438019,0.6576505131,-0.761133,770,750,241,900,3.0756517573,0,0,0,0,0,0
216,-1,5.990336,0,1576,0.5,3.6203540835,5182821, mir,PP00,5.578668,-2.208725, clockwise,0,0,0,-8,-6,0.6093299302,2.356194,4.2870455915,50,750,0,62,1,8,6,6,5180258,1.985072,-0.3769871029, ret,5180489,384,135,9.2487108751,2.0966394081,1.0927649638,0,923,12,100,3.141593,1,822,0,180,216,7.56374,0.1065683556, across_horiz,9.8840331756,0.376866678,8.199061,769,750,179,600,5.8787704737,0,0,0,0,0,0
2,-1,-1.23735,0,1278,0.5,4.8414539398,5186229, mir,PP00,-4.988439,-3.333989, Counter,0,0,0,-8,-6,0.369631104,3.926991,4.1191374489,50,750,0,460,1,8,6,6,5183962,9.248712,-2.5524303105, spa,5184193,-67,225,8.421486803,-2.0645740843,1.7163580402,0,924,13,100,4.712389,1,822,0,270,367,4.260273,0.3140505616, across_horiz,2.9238637868,1.0326763745,2.096639,769,750,172,300,5.087497166,0,0,0,0,0,0
93,-1,1.404932,0,1276,0.5,4.8069458214,5189024, mir,PP00,-4.895154,3.469505, clockwise,0,0,0,-8,-6,0.3135762099,2.356194,3.8639888612,50,750,0,135,1,8,6,6,5186761,8.421487,2.5250095296, ret,5186992,81,135,2.8135090779,5.5872617402,1.5915990133,0,923,14,100,3.141593,1,822,0,180,219,3.526333,0.1201986418, across_horiz,-2.7773979872,1.1578241615,-2.064573,770,750,182,300,4.2391554733,0,0,0,0,0,0
200,-1,2.180931,0,1876,0.5,3.8890541501,5192421, act,PP00,-4.939324,-3.406331, clockwise,0,0,0,-8,-6,0.6213775182,2.356194,3.2987960505,50,750,0,24,1,8,6,6,5189557,2.813509,-2.5378569505, ret,5189788,707,135,-2.892313331,-1.9918954173,1.7203339014,0,923,15,100,4.712389,0,822,0,270,193,-2.125815,0.1531969312, same,1.4144325871,0.945759452,5.587262,769,750,158,900,2.0470114022,0,0,0,0,0,0
243,-1,-1.851545,0,2178,0.5,4.1927924169,5196120, mir,PP00,5.998358,0.140351, clockwise,0,0,0,-8,-6,0.718190434,2.356194,4.3234565093,50,750,0,320,1,8,6,6,5192953,-2.89231,0.0233939681, ret,5193185,966,135,6.1754022025,-4.7805490593,1.0397617659,0,925,16,100,3.141593,1,824,0,180,234,3.106048,0.1079944948, across_horiz,1.0774601226,0.2135768371,-1.991896,770,750,197,1200,0.0366948121,0,0,0,0,0,0
247,-1,0.628879,0,1581,0.5,4.7378718633,5199241, act,PP00,-2.595785,5.409427, Counter,0,0,0,-8,-6,0.7076820429,3.926991,4.2202669533,50,750,0,475,1,8,6,6,5196663,6.175403,2.0182051201, ret,5196902,150,225,4.9864395709,4.6314847847,1.2596519876,0,929,17,100,1.570796,1,822,0,90,450,3.579618,0.0360557584, across_vert,-0.7779412629,0.5159141862,-4.780548,770,750,173,600,7.5822242444,0,0,0,0,0,0
221,-1,-1.214736,0,1877,0.5,4.6024827732,5202639, act,PP00,-1.349703,-5.846221, clockwise,0,0,0,-8,-6,0.4339906258,2.356194,4.2633136683,50,750,0,75,1,8,6,6,5199773,4.986439,-1.7976885665, spa,5200005,709,135,7.2346991936,1.0335212935,0.8169865739,0,924,18,100,0,0,823,0,0,191,3.636736,0.0493668, same,1.0335212935,0.333629148,4.631485,770,750,154,900,7.2346991936,0,0,0,0,0,0
216,-1,-4.604687,0,2176,0.5,5.3309021567,5206335, act,PP00,-2.051971,-5.63821, clockwise,0,0,0,-8,-6,1.9467104728,2.356194,1.9915175643,50,750,0,487,1,8,6,6,5203171,7.234698,-1.9198356129, ret,5203402,836,135,6.9758447656,-8.4497785046,5.3555258491,0,923,19,100,4.712389,1,822,0,270,364,5.182727,2.2799240953, across_vert,-2.8115693099,1.1288912811,1.033523,769,750,10,1200,9.0278185398,0,0,0,0,0,0
232,-1,-2.473793,0,1579,0.5,3.9811421023,5209434, act,PP00,0.536288,5.975985, clockwise,0,0,0,-8,-6,0.5762917783,2.356194,3.1789870116,50,750,0,278,1,8,6,6,5206867,6.975848,1.4812955539, spa,5207098,423,135,4.2559982364,-5.1936398457,2.6601502814,0,925,20,100,0,0,824,0,0,177,7.512136,0.1129452562, same,-5.1936398457,1.9709132469,-8.449778,770,750,146,600,4.2559982364,0,0,0,0,0,0
205,-1,0.067029,0,1884,0.5,3.5086899408,5212837, mir,PP00,-2.885369,5.26067, Counter,0,0,0,-8,-6,0.1644280002,3.926991,3.225012486,50,750,0,277,1,8,6,6,5209966,4.256,2.0724713227, spa,5210197,699,225,0.1829813767,-4.0059905644,1.7739741393,0,931,21,100,4.712389,1,823,0,270,201,1.370631,0.1719391953, across_vert,-1.1206207032,1.4376069439,-5.193641,770,750,165,900,5.4436505411,0,0,0,0,0,0
256,-1,0.817807,0,1278,0.5,4.4072915266,5215644, act,PP00,-3.568049,4.823798, Counter,0,0,0,-8,-6,0.7200403874,3.926991,4.2582799732,50,750,0,180,1,8,6,6,5213379,0.182982,2.2076574535, spa,5213609,43,225,0.8108565676,0.189933275,1.7817870601,0,924,22,100,0,0,824,0,0,257,-3.385067,0.0716200349, same,0.189933275,0.9901266377,-4.005991,770,750,219,300,0.8108565676,0,0,0,0,0,0
301,-1,-5.532227,0,1276,0.5,3.754185535,5218860, mir,PP00,-1.804684,-5.72216, Counter,0,0,0,-8,-6,0.6201001653,3.926991,3.3207161176,50,750,0,297,1,8,6,6,5216596,0.810856,-1.8763074499, ret,5216827,132,225,0.9649120086,-9.2956479941,1.8621720752,0,923,23,100,3.141593,1,822,0,180,168,-0.993828,0.3099305321, across_vert,-1.7688053274,0.9321413778,0.189933,769,750,133,300,-2.9525667049,0,0,0,0,0,0
304,-1,-4.715672,0,2178,0.5,5.1373846889,5222559, act,PP00,3.876057,4.579977, clockwise,0,0,0,-8,-6,1.0667864414,2.356194,3.7067596173,50,750,0,393,1,8,6,6,5219392,0.96491,0.868451371, ret,5219623,979,135,4.4890090247,-0.4876552565,2.9509830057,0,924,24,100,4.712389,1,823,0,270,221,4.840967,0.0769948167, across_vert,-5.0676298923,1.8072017476,-9.295649,770,750,192,1200,0.6129502496,0,0,0,0,0,0
202,-1,2.947033,0,1588,0.5,4.4902157067,5225667, mir,PP00,-4.919646,3.434688, Counter,0,0,0,-8,-6,0.6361738882,3.926991,4.1794101244,50,750,0,545,1,8,6,6,5223091,4.489006,2.5321043032, spa,5223322,388,225,0.3118398627,-1.2301339411,1.0566646485,0,923,25,100,4.712389,1,822,0,270,212,-0.43064,0.0967681743, across_horiz,3.6895127807,0.323722586,-0.487655,769,750,174,600,3.7465269556,0,0,0,0,0,0
182,-1,3.92224,0,2179,0.5,4.0846011221,5229765, mir,PP00,3.07458,5.152374, Counter,0,0,0,-8,-6,1.1382859452,3.926991,1.1388974357,50,750,0,11,1,8,6,6,5226598,0.31184,1.0327841545, spa,5226828,916,225,-0.7270567888,2.8833421667,5.3573597894,0,926,26,100,4.712389,1,822,0,270,284,3.38642,3.3503183571, across_vert,-0.1912368092,0.8687554872,-1.230134,769,750,251,1200,4.4253177526,0,0,0,0,0,0
243,-1,-1.481236,0,2176,0.5,3.8584580763,5233461, mir,PP00,4.117094,-4.364578, clockwise,0,0,0,-8,-6,0.7000674874,2.356194,3.690305707,50,750,0,163,1,8,6,6,5230297,-0.727057,-0.8145685676, ret,5230528,987,135,3.2662943973,-5.7220717394,1.8209321036,0,923,27,100,3.141593,0,822,0,180,213,3.390037,0.3253866473, same,2.7595996965,0.7954779689,2.883342,769,750,182,1200,3.5137810717,0,0,0,0,0,0
275,-1,-4.202291,0,2225,0.5,4.8522110923,5237206, act,PP00,-5.804332,1.519781, Counter,0,1,0,-8,-6,1.4960075961,3.926991,4.0729545788,50,750,0,59,1,8,6,6,5233994,3.266295,2.8855059544, ret,5234224,945,225,-4.6803118469,-0.5402344084,2.6352410404,0,972,28,100,1.570796,0,871,0,90,255,-2.538037,0.294393763, same,-2.0600149564,0.8448396813,-5.722072,818,750,221,1200,1.1240188916,0,0,0,0,0,0
224,-1,-5.753464,0,2177,0.5,3.8502212124,5240960, act,PP00,2.970226,-5.213229, clockwise,0,0,0,-8,-6,0.571175017,2.356194,4.0629424276,50,750,0,459,1,8,6,6,5237795,-4.680313,-1.0529181373, ret,5238027,929,135,2.3816400235,-6.8749674395,1.4046277723,0,924,29,100,4.712389,0,823,0,270,271,-1.710087,0.1816824378, same,-1.6617369985,0.6517703176,-0.540235,770,750,150,1200,-0.5885834802,0,0,0,0,0,0
237,-1,-1.160995,0,2183,0.5,4.354585597,5245156, act,PP00,1.830451,5.71397, Counter,0,0,0,-8,-6,0.7199056057,3.926991,3.5969056241,50,750,0,74,1,8,6,6,5241987,2.381641,1.2607789871, ret,5242216,995,225,7.9843025684,0.7807638491,1.8183725953,0,930,30,100,1.570796,0,822,0,90,205,4.212092,0.087109007, same,-4.9332049338,1.0113579826,-6.874965,769,750,173,1200,6.1538520818,0,0,0,0,0,0
220,-1,1.027481,0,2177,0.5,4.5215672704,5248852, mir,PP00,-5.994925,0.246717, Counter,0,0,0,-8,-6,0.5523800381,3.926991,4.5197265908,50,750,0,516,1,8,6,6,5245688,7.984302,3.1004615544, spa,5245919,921,225,4.8634818306,-2.0933396329,1.3642293552,0,924,31,100,4.712389,1,823,0,270,279,1.989377,0.2778583963, across_horiz,3.9015857694,0.5339909208,0.780764,770,750,239,1200,5.1101976893,0,0,0,0,0,0
256,-1,3.905702,0,1877,0.5,4.1055443642,5252250, act,PP00,-0.107281,5.999041, clockwise,0,0,0,-8,-6,0.5028985686,2.356194,4.1400008629,50,750,0,155,1,8,6,6,5249385,4.863482,1.5886774458, spa,5249615,-330,135,1.8103195906,0.8525425345,2.6192291722,0,923,32,100,0,0,822,0,0,1230,4.756201,0.1447325836, same,0.8525425345,1.9715980201,-2.093339,769,750,209,900,1.8103195906,0,0,0,0,0,0
265,-1,2.231094,0,1577,0.5,4.2198573618,5255526, mir,PP00,5.839486,1.378553, clockwise,0,0,0,-8,-6,1.7267477209,2.356194,4.1250445303,50,750,0,79,1,8,6,6,5252782,1.810321,0.231829863, spa,5253193,290,135,5.41933771,-1.3779234212,2.6335514627,0,924,33,100,1.570796,1,823,0,90,310,7.649807,0.1291831248, across_horiz,4.4615621106,0.7776206171,0.852541,770,750,277,600,4.0407888499,0,0,0,0,0,0
223,-1,4.108816,0,1876,0.5,4.1905556171,5258929, mir,PP00,2.428099,5.486742, clockwise,0,0,0,-8,-6,0.7367078724,2.356194,3.4708423619,50,750,0,508,1,8,6,6,5256065,5.419341,1.1541640099, spa,5256296,708,135,9.3767582131,0.1513943895,1.6438660926,0,923,34,100,1.570796,1,822,0,90,192,7.84744,0.0742642967, across_vert,2.5794964936,0.8328939236,-1.377926,769,750,158,900,3.8900188893,0,0,0,0,0,0
278,-1,3.371669,0,1278,0.5,4.2372664953,5261729, mir,PP00,-5.062592,3.220273, Counter,0,0,0,-8,-6,1.2363453569,3.926991,3.9344885666,50,750,0,260,1,8,6,6,5259461,9.376761,2.5750569797, spa,5259694,-3,225,5.235329391,-0.7697635461,2.3848011222,0,925,35,100,4.712389,1,824,0,270,303,4.314169,0.1021070514, across_horiz,4.2928293097,1.0463487139,0.151396,770,750,269,300,8.4556015642,0,0,0,0,0,0
216,-1,-0.799102,0,2191,0.5,3.9903573938,5265454, mir,PP00,-5.999928,-0.029338, Counter,0,0,0,-8,-6,0.3374264267,3.926991,1.2147775006,50,750,0,8,1,8,6,6,5262261,5.23533,-3.1367029672, ret,5262506,1070,225,-3.7498915398,-3.8137367177,3.7788767855,0,938,36,100,3.141593,1,822,0,180,130,-0.764598,0.1420451499, across_horiz,2.2155316835,3.299405209,-0.769764,769,750,102,1200,2.2206965841,0,0,0,0,0,0
242,-1,-4.062177,0,1878,0.5,3.9090277324,5268857, mir,PP00,5.994854,-0.248442, Counter,0,0,0,-8,-6,0.828716103,3.926991,4.2063392006,50,750,0,12,1,8,6,6,5265992,-3.749892,-0.0414188427, ret,5266223,710,225,5.3666085695,-1.1889692639,2.6992431485,0,925,37,100,3.141593,1,824,0,180,190,2.244962,1.3439772038, across_horiz,-6.9353836548,0.5265498417,-3.813735,770,750,154,900,-0.8766855648,0,0,0,0,0,0
4,-1,-0.650676,0,1277,0.5,4.5144850997,5271653, act,PP00,-5.975805,0.538294, Counter,0,0,0,-8,-6,0.2614355887,3.926991,4.1964659595,50,750,0,559,1,8,6,6,5269389,5.366609,3.0517562041, ret,5269620,-66,225,-3.3279508116,2.6063736273,0.9410588762,0,924,38,100,1.570796,0,823,0,90,366,-0.609196,0.1862191445, same,2.068079876,0.4934041431,-1.18897,770,750,162,300,2.6478527388,0,0,0,0,0,0
175,-1,-1.20675,0,1877,0.5,3.4723553017,5275051, mir,PP00,-4.632504,-3.813123, Counter,0,0,0,-8,-6,2.2669050389,3.926991,3.0924737053,50,750,0,338,1,8,6,6,5272186,-3.327951,-2.4529101747, ret,5272417,551,225,-8.3701432625,-5.429563698,4.0839550368,0,923,39,100,3.141593,1,822,0,180,349,-7.960455,0.2693955243, across_horiz,3.016063556,1.5476544736,2.606373,769,750,152,900,-7.5507652747,0,0,0,0,0,0
-1,-1,0.51227,0,0,0.5,0,5278498, mir,PP00,0.833438,5.941834, clockwise,0,1,0,-8,-6,-1,2.356194,4.2978066911,50,750,0,2,1,8,6,6,5275583,-8.370145,1.4314393907, spa,5275814,1440,135,0,0,5.2548653633,0,1928,40,100,1.570796,-1,869,0,90,-540,-7.536707,5.8216489547, undef,-2.0419259782,0.4332164087,-5.429564,817,750,215,900,-10.9243437729,0,0,0,0,0,0
239,-1,-0.879986,0,2177,0.5,4.3694874451,5282195, act,PP00,5.658486,1.995379, clockwise,0,0,0,-8,-6,1.044142307,2.356194,4.2273834136,50,750,0,520,1,8,6,6,5279031,-4.982509,0.3390201365, ret,5279261,780,135,2.5075322712,2.9469455762,1.7331577495,0,923,41,100,4.712389,0,822,0,270,420,0.675977,0.101288293, same,0.9515693463,0.5877271495,-2.875365,769,750,189,1200,-3.1509545402,0,0,0,0,0,0
244,-1,0.643872,0,1576,0.5,5.9381170615,5285294, act,PP00,-5.540384,-2.303074, clockwise,0,0,0,-8,-6,0.6554061607,2.356194,4.1510740351,50,750,0,204,1,8,6,6,5282728,2.50753,-2.7476352775, ret,5282961,307,135,-4.6515107394,-3.2778559814,2.9386482945,0,923,42,100,4.712389,0,822,0,270,293,-3.032854,0.2226495067, same,-0.9747848164,2.0605926272,2.946946,769,750,259,600,0.8888739496,0,0,0,0,0,0
100,-1,2.494465,0,1276,0.5,5.168959329,5288091, act,PP00,-1.637161,5.772322, clockwise,0,0,0,-8,-6,-1,2.356194,4.3202543123,50,750,0,399,1,8,6,6,5285827,-4.651507,1.8471611007, ret,5286058,74,135,-9.9934086602,4.5620473177,1.6586954505,0,923,43,100,4.712389,0,822,0,270,226,-6.288668,1.4330277853, same,-1.2102756197,1.2256676652,-3.277857,770,750,199,300,-8.3562503904,0,0,0,0,0,0
-1,-1,1.70724,0,0,0.5,0,5292389, mir,PP00,5.277317,-2.854806, clockwise,0,1,0,-8,-6,-1,2.356194,0.2564793348,50,750,0,493,1,8,6,6,5289401,-9.993409,-0.4958745575, ret,5289708,495,135,0,0,10.0926672453,0,1925,44,100,3.141593,-1,823,0,180,405,-4.716092,6.2496407915, undef,5.7733025446,4.8430264538,4.562046,770,750,213,900,-5.9273456412,0,0,0,0,0,0
261,-1,-2.959536,0,1876,0.5,4.2099666674,5295808, mir,PP00,5.969853,-0.600714, clockwise,0,0,0,-8,-6,1.9397627291,2.356194,4.2527217637,50,750,0,416,1,8,6,6,5292922,-3.504835,-0.1002870184, ret,5293175,698,135,5.1495869474,-6.2448197878,2.5611001543,0,923,45,100,3.141593,1,822,0,180,202,2.465018,0.059891401, across_horiz,0.3257487178,0.5614460242,-2.358822,769,750,164,900,-0.2195498094,0,0,0,0,0,0
297,-1,-3.868644,0,1277,0.5,4.6984026413,5298607, act,PP00,-5.509428,2.376175, Counter,0,0,0,-8,-6,1.073178193,3.926991,2.9172006362,50,750,0,339,1,8,6,6,5296340,5.149588,2.734404294, spa,5296573,146,225,3.5829609659,-2.3020168767,3.1075415868,0,924,46,100,0,0,823,0,0,154,-0.35984,0.0382643764, same,-2.3020168767,1.9960990173,-6.244819,770,750,124,300,3.5829609659,0,0,0,0,0,0
222,-1,3.279504,0,1876,0.5,5.0371408037,5302013, mir,PP00,-2.201504,5.581521, clockwise,0,0,0,-8,-6,0.792623772,2.356194,2.8935481234,50,750,0,94,1,8,6,6,5299139,3.582962,1.9464894, ret,5299380,725,135,3.0714671409,7.1710164443,2.2108799977,0,923,47,100,3.141593,0,822,0,180,175,1.381458,0.0531239045, same,-0.6120078588,1.3651323212,-2.302017,770,750,146,900,-0.3085524889,0,0,0,0,0,0
184,-1,1.286144,0,2178,0.5,4.2056360988,5305712, act,PP00,-1.169731,-5.884873, Counter,0,0,0,-8,-6,2.0751425092,3.926991,2.427191541,50,750,0,322,1,8,6,6,5302545,3.071467,-1.767008064, spa,5302777,990,225,-0.4558356181,4.8134455275,5.0173024471,0,924,48,100,0,0,823,0,0,210,1.901736,2.3642773677, same,4.8134455275,0.5778825702,7.171017,769,750,186,1200,-0.4558356181,0,0,0,0,0,0
260,-1,0.769097,0,1276,0.5,3.7556641894,5309047, mir,PP00,-4.432069,-4.044349, Counter,0,0,0,-8,-6,0.4956261406,3.926991,4.0053959543,50,750,0,187,1,8,6,6,5306783,-0.455836,-2.4019036492, ret,5307015,144,225,-5.0817627711,-3.4691124291,2.3280516048,0,923,49,100,3.141593,1,822,0,180,156,-4.887905,0.8972994783, across_horiz,5.0073063619,0.9351259859,4.813446,770,750,120,300,-4.6940457607,0,0,0,0,0,0
-1,-1,-5.136965,0,0,0.5,0,5312201, mir,PP00,5.763529,-1.667852, clockwise,0,1,0,-8,-6,-1,2.356194,0.6686784132,50,750,0,530,1,8,6,6,5309588,-5.081765,-0.2816857409, ret,5309818,192,135,0,0,10.6678740988,0,1626,50,100,3.141593,-1,824,0,180,408,0.681764,6.3849062657, undef,-1.4212733325,5.2829678331,-3.469113,770,750,242,600,-1.3660727688,0,0,0,0,0,0
169,-1,-5.086809,0,2178,0.5,4.7941054483,5316792, mir,PP00,-4.671016,3.765846, Counter,0,0,0,-8,-6,1.5133980577,3.926991,3.8681139287,50,750,0,35,1,8,6,6,5313625,2.729603,2.4630731816, spa,5313857,883,225,-1.4888270608,-9.3052406953,2.4615125699,0,925,51,100,4.712389,1,824,0,270,317,-1.941413,0.3552056962, across_horiz,-4.6342231435,0.592908816,-8.852655,772,750,143,1200,2.2770187041,0,0,0,0,0,0
-1,-1,-3.645321,0,0,0.5,0,5319681, act,PP00,-1.991309,5.65992, Counter,0,1,0,-8,-6,-1,3.926991,0.5615564736,50,750,0,167,1,8,6,6,5317323,-1.488828,1.9090972574, spa,5317554,301,225,0,0,6.1908575181,0,0,52,100,0,-1,869,0,0,-1,-3.480137,8.1908575181, undef,-5.4796256485,-1,-9.305241,817,750,-1,300,0.3454775201,0,0,0,0,0,0
223,-1,0.361902,0,1925,0.5,4.0163335459,5323125, act,PP00,-1.369873,5.841528, clockwise,0,1,0,-8,-6,0.7389871221,2.356194,3.2265608226,50,750,0,150,1,8,6,6,5320212,0.345477,1.8011400299, ret,5320444,549,135,-4.6300953772,2.597731153,5.6983403156,0,972,53,100,4.712389,0,871,0,270,351,-1.024396,3.9432670887, same,-3.2437973334,1.0160861048,-5.479626,818,750,312,900,-3.2602252237,0,0,0,0,0,0
161,-1,-2.907018,0,1878,0.5,4.2513721806,5326550, act,PP00,2.386999,-5.504746, Counter,0,0,0,-8,-6,0.6326423115,3.926991,3.3962054289,50,750,0,562,1,8,6,6,5323670,-4.630097,-1.1616424298, spa,5323915,707,225,-6.1889711826,-1.3481450652,1.7200084008,0,924,54,100,0,0,823,0,0,193,-2.243098,0.1316028263, same,-1.3481450652,0.955763263,2.597728,771,750,162,900,-6.1889711826,0,0,0,0,0,0
269,-1,1.909414,0,1881,0.5,4.5526259769,5329951, act,PP00,5.038681,3.257559, clockwise,0,0,0,-8,-6,0.5665168739,2.356194,4.1744272018,50,750,0,621,1,8,6,6,5327081,-6.188971,0.5739180682, spa,5327313,727,135,-5.2984097445,2.7999770722,2.2512453757,0,923,55,100,0,0,822,0,0,173,-1.15029,0.1242270295, same,2.7999770722,1.5605014723,-1.348145,769,750,143,900,-5.2984097445,0,0,0,0,0,0
158,-1,-3.141858,0,1877,0.5,3.8764258275,5333348, act,PP00,0.833437,-5.941833, clockwise,0,0,0,-8,-6,0.9812799373,2.356194,0.7826083355,50,750,0,206,1,8,6,6,5330483,-5.29841,-1.4314395326, ret,5330714,889,135,-1.0773390435,-5.6960577136,4.6468589112,0,923,56,100,4.712389,0,822,0,270,11,-4.464973,0.1516588399, same,0.2457759064,3.513920134,2.799975,769,750,197,900,-1.91077322,0,0,0,0,0,0
247,-1,-1.638128,0,1626,0.5,4.1647534198,5341645, act,PP00,-4.419641,4.057927, Counter,0,1,0,-8,-6,0.6231829678,3.926991,4.1170278261,50,750,0,631,1,8,6,6,5339031,-1.077337,2.3988358162, ret,5339262,346,225,-5.6778343953,2.6006561375,3.3838012832,0,972,57,100,1.570796,0,870,0,90,254,-5.496978,2.5763414127, same,-1.4572702195,0.1842769027,-5.696055,818,750,219,600,-1.2581939216,0,0,0,0,0,0
236,-1,-3.092421,0,1577,0.5,4.5845413854,5344743, mir,PP00,-1.894432,-5.693078, Counter,0,0,0,-8,-6,0.7392442968,3.926991,3.8027573654,50,750,0,618,1,8,6,6,5342178,-5.677835,-1.8920313246, spa,5342409,345,225,-3.7785128968,-1.1930974876,2.2768471441,0,924,58,100,4.712389,1,823,0,270,255,-7.572267,0.4962664293, across_vert,0.7013331404,1.041336418,2.600657,770,750,144,600,-9.471590438,0,0,0,0,0,0
231,-1,-5.643539,0,1280,0.5,3.8597446406,5347543, act,PP00,4.024122,-4.450442, Counter,0,0,0,-8,-6,1.0553935393,3.926991,3.5879033677,50,750,0,251,1,8,6,6,5345276,-3.778512,-0.8356616246, ret,5345506,118,225,0.0324493667,-9.880821448,2.7569835731,0,927,59,100,1.570796,1,826,0,90,182,0.24561,0.1975179057, across_vert,-5.4303797514,1.5040721281,-1.193097,774,750,143,300,-3.9916725177,0,0,0,0,0,0
233,-1,-4.09216,0,1576,0.5,4.1877567514,5350639, mir,PP00,-1.578413,5.788662, Counter,0,0,0,-8,-6,0.2769295065,3.926991,4.4447058554,50,750,0,456,1,8,6,6,5348075,0.032451,1.8369980474, spa,5348306,333,225,-3.6510858896,-7.7756981645,2.1982740319,0,923,60,100,4.712389,1,822,0,270,267,-1.545962,1.0686924666, across_vert,-6.1972839619,0.8526520589,-9.880822,769,750,228,600,2.1375761232,0,0,0,0,0,0
301,-1,-2.393947,0,2176,0.5,3.956706072,5354753, mir,PP00,-2.652689,5.381751, Counter,0,0,0,-8,-6,0.4806605812,3.926991,4.3050727707,50,750,0,128,1,8,6,6,5351589,-3.651086,2.028751398, spa,5351819,952,225,-7.6683051338,-6.4111671227,1.9158232416,0,923,61,100,4.712389,1,822,0,270,248,-6.303775,0.5500155035, across_vert,-3.7584772126,0.8851471569,-7.775698,769,750,211,1200,-2.2865549041,0,0,0,0,0,0
137,-1,-1.743945,0,1877,0.5,4.4760736185,5358671, mir,PP00,3.770547,4.667223, clockwise,0,0,0,-8,-6,0.9004317581,2.356194,3.770299175,50,750,0,138,1,8,6,6,5355806,-7.668304,0.8912701238, ret,5356037,719,135,0.3211283451,-1.2956075768,2.1445913655,0,924,62,100,3.141593,1,823,0,180,181,-3.897757,0.2145668267, across_vert,-2.1922809618,1.0295927807,-6.411168,770,750,151,900,-8.1166425004,0,0,0,0,0,0
166,-1,4.694683,0,1876,0.5,4.1975293768,5362067, mir,PP00,0.341233,5.990289, clockwise,0,0,0,-8,-6,0.5819201931,2.356194,4.317095327,50,750,0,336,1,8,6,6,5359203,0.321128,1.5138934589, ret,5359434,516,135,3.8281223066,7.519210456,1.4157026421,0,923,63,100,3.141593,1,822,0,180,384,0.662361,0.0825539952, across_vert,1.8701566406,0.7512284538,-1.295606,769,750,205,900,-2.503401285,0,0,0,0,0,0
270,-1,4.020669,0,1277,0.5,4.7368754,5365116, act,PP00,-4.874444,-3.498542, clockwise,0,0,0,-8,-6,0.7012781239,2.356194,0.33606543,50,750,0,230,1,8,6,6,5362849,3.828122,-2.5190652157, spa,5363082,271,135,3.1401706375,3.332715952,5.447670101,0,924,64,100,0,0,823,0,0,29,-1.046322,0.2696638823, same,3.332715952,4.4767280949,7.519211,770,750,171,300,3.1401706375,0,0,0,0,0,0
157,-1,5.310184,0,2176,0.5,3.8354445571,5368820, mir,PP00,-5.664771,1.977466, Counter,0,0,0,-8,-6,0.8795861472,3.926991,4.2059188,50,750,0,273,1,8,6,6,5365654,3.140171,2.8057364505, ret,5365886,883,225,-6.3457174038,3.466529535,1.7245686093,0,923,65,100,3.141593,0,822,0,180,317,-2.5246,0.2091040154, same,7.1538371414,0.6358784466,3.332718,770,750,280,1200,1.2965180425,0,0,0,0,0,0
216,-1,-0.600287,0,1578,0.5,3.9050099804,5371920, act,PP00,4.411461,-4.066818, clockwise,0,0,0,-8,-6,1.1189808501,2.356194,4.0325454302,50,750,0,346,1,8,6,6,5369352,-6.345717,-0.7447704187, ret,5369585,177,135,2.3048837695,-0.4279674872,1.6650153734,0,925,66,100,4.712389,1,824,0,270,423,-1.934256,0.0882598043, across_horiz,3.6388527729,0.4577747191,3.466531,771,750,220,600,-2.1065754297,0,0,0,0,0,0
210,-1,4.92577,0,1287,0.5,4.6340958134,5375319, mir,PP00,2.708786,5.353735, clockwise,0,0,0,-8,-6,0.2125745899,2.356194,4.1736867157,50,750,0,638,1,8,6,6,5373045,2.304883,1.1023905708, spa,5373276,80,135,6.3361402057,0.894508422,0.9006310545,0,934,67,100,1.570796,1,833,0,90,220,5.013669,0.2772168554, across_vert,3.6032974769,0.4108396092,-0.427965,770,750,179,300,0.9824078542,0,0,0,0,0,0
198,-1,2.647826,0,1580,0.5,4.1547599565,5378418, mir,PP00,-5.738108,1.753316, clockwise,0,0,0,-8,-6,1.2628723735,2.356194,3.815290903,50,750,0,262,1,8,6,6,5375852,6.336144,2.8450460121, ret,5376081,401,135,-1.3943594499,6.3935382649,2.0570566692,0,926,68,100,3.141593,1,824,0,180,199,0.598036,0.1957354499, across_horiz,-1.097886955,0.5984488458,0.89451,771,750,160,600,2.5904301524,0,0,0,0,0,0
185,-1,1.538456,0,1576,0.5,4.1968036051,5382027, act,PP00,-3.525362,-4.855082, clockwise,0,0,0,-8,-6,0.7993620991,2.356194,3.8980446457,50,750,0,157,1,8,6,6,5379463,-1.39436,-2.198836886, spa,5379695,327,135,-0.7294995843,2.2033139602,1.5806298699,0,923,69,100,0,0,822,0,0,273,-4.919722,0.1800330651, same,2.2033139602,0.6012347056,6.393538,769,750,239,600,-0.7294995843,0,0,0,0,0,0
152,-1,-3.796616,0,1877,0.5,3.6137907278,5385424, mir,PP00,0.028476,-5.999932, Counter,0,0,0,-8,-6,0.7822109261,3.926991,3.5095577071,50,750,0,21,1,8,6,6,5382559,-0.7295,-1.5660503086, ret,5382790,736,225,2.3131817948,-6.7823426162,2.0671776223,0,924,70,100,3.141593,1,823,0,180,164,-0.701024,0.0188087973, across_vert,-0.8108883396,1.2661578989,2.203316,770,750,130,900,-3.7152287605,0,0,0,0,0,0
233,-1,-1.146499,0,1924,0.5,4.2184563379,5388868, mir,PP00,-2.058456,5.635845, Counter,0,1,0,-8,-6,0.4313085163,3.926991,4.0842474921,50,750,0,266,1,8,6,6,5385956,2.31318,1.9209860774, ret,5386188,633,225,-3.592427983,0.6421937125,2.1815335345,0,971,71,100,3.141593,1,870,0,180,267,0.254724,1.295697147, across_vert,-2.9351930452,0.4545278712,-6.782344,817,750,223,900,4.1018753634,0,0,0,0,0,0
228,-1,-5.326465,0,1877,0.5,4.4145528498,5392645, act,PP00,-0.612447,-5.968661, Counter,0,0,0,-8,-6,1.074091501,3.926991,3.9275867807,50,750,0,424,1,8,6,6,5389780,-3.592427,-1.6730489111, ret,5390011,689,225,-7.4954281355,-8.0045713238,3.0033725542,0,923,72,100,1.570796,0,822,0,90,211,-4.204874,0.4546864472, same,-2.0359117397,1.474594606,0.642196,770,750,174,900,-6.8829813991,0,0,0,0,0,0
254,-1,-2.741967,0,1591,0.5,4.4714528911,5395756, act,PP00,2.881838,5.262606, clockwise,0,0,0,-8,-6,1.2012146329,2.356194,3.238251901,50,750,0,477,1,8,6,6,5393176,-7.495428,1.0697924836, ret,5393408,410,135,-5.8039718825,1.3302548719,2.4812163109,0,923,73,100,4.712389,1,822,0,270,190,-4.61359,0.0948548392, across_vert,-3.9323488026,1.1851468389,-8.004573,770,750,158,600,-8.6858118952,0,0,0,0,0,0
290,-1,-2.643478,0,1285,0.5,4.765324665,5398562, act,PP00,4.495493,-3.973732, clockwise,0,0,0,-8,-6,1.002446089,2.356194,3.4726049447,50,750,0,308,1,8,6,6,5396288,-5.803975,-0.7238692272, spa,5396520,122,135,-1.5693604122,1.5911344326,2.2136874999,0,932,74,100,0,0,831,0,0,178,-1.308482,0.3089842312, same,1.5911344326,0.9022571797,1.330254,778,750,140,300,-1.5693604122,0,0,0,0,0,0
159,-1,-0.970109,0,1578,0.5,4.084256273,5402023, act,PP00,5.425868,-2.561243, Counter,0,0,0,-8,-6,0.8769261964,3.926991,3.107354518,50,750,0,523,1,8,6,6,5399455,-1.569363,-0.4410329252, spa,5399688,387,225,-0.1370497243,-2.4024220467,2.8274518611,0,925,75,100,0,0,824,0,0,213,3.856505,0.3753987137, same,-2.4024220467,1.575126951,1.591134,770,750,183,600,-0.1370497243,0,0,0,0,0,0
281,-1,-4.421653,0,2176,0.5,3.481515875,5405719, mir,PP00,5.650018,-2.019232, Counter,0,0,0,-8,-6,1.0413388493,3.926991,4.1281232084,50,750,0,625,1,8,6,6,5402554,-0.13705,-0.3432387248, spa,5402786,878,225,3.697574255,-0.5870284355,2.1125509996,0,923,76,100,4.712389,1,822,0,270,322,5.512968,0.050595096, across_horiz,-6.2370466698,1.0206170543,-2.402421,769,750,287,1200,1.6783433999,0,0,0,0,0,0
296,-1,4.689057,0,1878,0.5,3.8153786901,5409194, act,PP00,-2.857082,5.276086, Counter,0,0,0,-8,-6,0.5075304167,3.926991,0.5849985988,50,750,0,87,1,8,6,6,5406326,3.697574,2.0671021466, ret,5406559,675,225,2.0499945673,8.7556407677,4.9140509873,0,924,77,100,1.570796,1,823,0,90,225,0.840492,3.7130793952, across_vert,3.4795557616,0.6934411755,-0.587029,769,750,196,900,4.907076163,0,0,0,0,0,0
256,-1,5.518883,0,1876,0.5,3.7371331655,5412590, act,PP00,-5.052068,-3.236758, Counter,0,0,0,-8,-6,0.7153128443,3.926991,3.822899944,50,750,0,111,1,8,6,6,5409725,2.049993,-2.5717973351, ret,5409957,671,225,-7.1464882478,6.4265386788,1.5029872054,0,923,78,100,1.570796,1,822,0,90,229,-3.002075,0.1886053974, across_horiz,9.6632965445,0.5990689637,8.755641,770,750,188,900,-2.0944206756,0,0,0,0,0,0
173,-1,0.442647,0,1880,0.5,3.6324786909,5415990, act,PP00,-0.439393,-5.98389, clockwise,0,0,0,-8,-6,0.7335755877,2.356194,3.8386215984,50,750,0,40,1,8,6,6,5413122,-7.146489,-1.6440941028, ret,5413353,467,135,-4.8136352324,-2.7689955485,1.8558473122,0,926,79,100,4.712389,0,824,0,270,433,-7.585882,0.2704631943, same,3.2148937047,0.8518085301,6.426537,770,750,235,900,-4.3742393971,0,0,0,0,0,0
457,-1,-1.642457,0,1882,0.5,4.3110582061,5419391, act,PP00,5.893294,1.126536, Counter,0,0,0,-8,-6,1.1697458025,3.926991,4.1186711768,50,750,0,452,1,8,6,6,5416521,-4.813633,0.1888770215, spa,5416753,691,225,-1.3037174394,-5.1523725566,1.5707693354,0,929,80,100,0,0,828,0,0,209,1.079661,0.1562754547, same,-5.1523725566,0.2447480782,-2.768993,769,750,172,900,-1.3037174394,0,0,0,0,0,0
222,-1,0.830447,0,1580,0.5,4.2355668395,5422985, act,PP00,0.453734,5.982819, Counter,0,0,0,-8,-6,0.8552267501,3.926991,3.9584815688,50,750,0,620,1,8,6,6,5420418,-1.303717,1.4951017276, spa,5420648,342,225,1.9145601762,-2.3878290955,1.9280922519,0,926,81,100,0,0,824,0,0,258,-0.849983,0.1926922546, same,-2.3878290955,0.8801732472,-5.152372,770,750,223,600,1.9145601762,0,0,0,0,0,0
215,-1,2.07263,0,1577,0.5,4.3141182621,5426081, act,PP00,4.013016,4.46046, clockwise,0,0,0,-8,-6,0.7077975778,2.356194,4.0211012889,50,750,0,351,1,8,6,6,5423517,1.91456,0.8381544125, ret,5423748,372,135,5.7038559963,6.3093680566,1.8506915572,0,924,82,100,4.712389,1,823,0,270,228,5.927576,0.4345869907, across_vert,1.8489100794,0.7083069887,-2.38783,770,750,195,600,1.6908379391,0,0,0,0,0,0
354,-1,1.02019,0,1876,0.5,4.1904728259,5429477, mir,PP00,-2.832771,-5.289178, clockwise,0,0,0,-8,-6,0.6274939794,2.356194,3.8940317622,50,750,0,239,1,8,6,6,5426614,5.703854,-2.0625001344, spa,5426844,705,135,1.6428827402,5.0811657598,1.6115385685,0,923,83,100,1.570796,1,822,0,90,195,2.871083,0.1689399309, across_vert,2.2483915869,0.8151046583,6.309368,769,750,157,900,6.9320583585,0,0,0,0,0,0
164,-1,1.284944,0,1577,0.5,4.2669838049,5432574, act,PP00,-4.646366,-3.79622, clockwise,0,0,0,-8,-6,1.5872482279,2.356194,2.9789053286,50,750,0,181,1,8,6,6,5430009,1.642879,-2.4565535361, ret,5430240,417,135,-3.428561967,-2.9363486068,3.1243270045,0,924,84,100,4.712389,0,823,0,270,183,-3.003487,0.0822579998, same,0.8598689502,1.4548207767,5.081164,770,750,150,600,1.2178055985,0,0,0,0,0,0
227,-1,-1.787219,0,1326,0.5,4.5938664029,5435424, mir,PP00,5.888931,1.14913, clockwise,0,1,0,-8,-6,1.0677919994,2.356194,4.1096054614,50,750,0,363,1,8,6,6,5433111,-3.428559,0.1927122573, ret,5433341,48,135,5.9794017644,-4.15711974,2.1441086769,0,973,85,100,3.141593,1,872,0,180,252,2.460372,0.522828979, across_horiz,0.5826829591,0.5534876985,-2.936349,819,750,216,300,-1.0586569434,0,0,0,0,0,0
156,-1,-3.741539,0,1577,0.5,3.5374254992,5438997, mir,PP00,-5.98559,0.41558, Counter,0,0,0,-8,-6,1.2389965731,3.926991,3.8189220457,50,750,0,130,1,8,6,6,5436431,5.979402,3.0722738142, spa,5436663,434,225,2.7788178657,-6.9421236853,2.4628755744,0,924,86,100,4.712389,1,823,0,270,166,-0.006188,0.0884775834, across_horiz,-0.956533197,1.1354014179,-4.157119,769,750,130,600,3.1943967399,0,0,0,0,0,0
240,-1,-5.719122,0,2224,0.5,4.6469261366,5442742, act,PP00,-5.874033,1.223002, Counter,0,1,0,-8,-6,0.6835528246,3.926991,4.3331612392,50,750,0,390,1,8,6,6,5439529,2.778817,2.9363204324, spa,5439761,904,225,0.4533011938,-3.3936057723,2.6342586658,0,971,87,100,0,0,870,0,0,296,-3.095216,0.9154399152, same,-3.3936057723,1.035265926,-6.942124,817,750,260,1200,0.4533011938,0,0,0,0,0,0
142,-1,2.069366,0,1879,0.5,4.526586656,5446578, act,PP00,-2.481115,5.462972, clockwise,0,0,0,-8,-6,0.8398852106,2.356194,1.7798906904,50,750,0,114,1,8,6,6,5443711,0.453301,1.9971121573, spa,5443942,670,135,-3.5187445565,-1.9026770607,4.9483582148,0,925,88,100,0,0,824,0,0,230,-2.027814,2.4720790425, same,-1.9026770607,1.6363939618,-3.393606,770,750,6,900,-3.5187445565,0,0,0,0,0,0
268,-1,2.510928,0,1876,0.5,3.7963120969,5449973, act,PP00,-4.064491,4.413606, Counter,0,0,0,-8,-6,0.3945469238,3.926991,4.3213849252,50,750,0,549,1,8,6,6,5447110,-3.518743,2.3150392789, ret,5447340,584,225,-7.4086759027,6.7499761798,1.2802039122,0,923,89,100,1.570796,1,822,0,90,316,-7.583234,0.2106378628, across_vert,2.336371288,0.6750191256,-1.902678,769,750,278,900,-3.3441857632,0,0,0,0,0,0
290,-1,1.416648,0,2190,0.5,3.9032331332,5453682, act,PP00,2.748748,-5.333328, Counter,0,0,0,-8,-6,0.1777080803,3.926991,3.0477011931,50,750,0,10,1,8,6,6,5450505,-7.408678,-1.0949120527, spa,5450735,954,225,-8.7009680612,2.7089372044,2.2344924377,0,925,90,100,0,0,824,0,0,246,-4.65993,0.3163034868, same,2.7089372044,1.7404808706,6.749976,770,750,216,1200,-8.7009680612,0,0,0,0,0,0
183,-1,1.722834,0,1876,0.5,3.7317613448,5457610, mir,PP00,5.918412,-0.986104, Counter,0,0,0,-8,-6,0.7778933233,3.926991,3.9605983286,50,750,0,97,1,8,6,6,5454745,-8.700968,-0.1650996865, ret,5454976,713,225,0.6697006128,4.1889897695,2.3051821043,0,923,91,100,3.141593,1,822,0,180,187,-2.782556,0.1932463774, across_horiz,-0.7433205736,1.3340424036,2.708938,770,750,154,900,-6.2348134671,0,0,0,0,0,0
-1,-1,0.976971,0,0,0.5,0,5460608, mir,PP00,5.067835,-3.212017, clockwise,0,1,0,-8,-6,-1,2.356194,1.6314074541,50,750,0,372,1,8,6,6,5458294,0.669701,-0.5649056551, ret,5458525,-734,135,0,0,5.395932433,0,924,92,100,3.141593,-1,823,0,180,1034,5.737536,2.6575653014, undef,5.1168971791,3.7383671317,4.188988,769,750,301,300,4.8096290912,0,0,0,0,0,0
278,-1,1.116641,0,1325,0.5,4.7053721782,5463499, mir,PP00,-4.205361,4.279596, clockwise,0,1,0,-8,-6,0.6321377524,2.356194,3.595412681,50,750,0,535,1,8,6,6,5461140,6.665445,2.3474457003, ret,5461418,45,135,2.4972021084,5.3591193142,1.4207164244,0,972,93,100,3.141593,0,871,0,180,255,2.460084,0.1394592415, same,-3.1258373013,0.6491194304,-3.162955,818,750,222,300,2.422964422,0,0,0,0,0,0
248,-1,0.254213,0,1289,0.5,4.7495169122,5466308, mir,PP00,-3.152765,-5.104906, Counter,0,0,0,-8,-6,1.1003054568,3.926991,1.4980290932,50,750,0,542,1,8,6,6,5464031,2.497201,-2.1240530502, spa,5464262,-4,225,3.4732717372,1.2302844395,4.8134354241,0,924,94,100,4.712389,1,823,0,270,304,-0.655564,2.7461886389, across_vert,4.3830487564,0.9669413283,5.359119,770,750,10,300,-1.6316353585,0,0,0,0,0,0
240,-1,3.22078,0,2176,0.5,4.6100033157,5470150, mir,PP00,-5.660206,1.990495, clockwise,0,0,0,-8,-6,1.0991622456,2.356194,3.396208671,50,750,0,603,1,8,6,6,5466897,3.473272,2.8034355199, ret,5467218,957,135,-4.0217888912,7.0461306412,3.0587740789,0,923,95,100,3.141593,1,822,0,180,243,-2.186934,1.0895100411, across_horiz,-0.6045712768,0.8701017922,1.230285,769,750,207,1200,-0.352080434,0,0,0,0,0,0
177,-1,5.41146,0,1577,0.5,4.351871751,5473248, mir,PP00,5.773029,-1.63467, clockwise,0,0,0,-8,-6,0.9777342131,2.356194,3.6547132897,50,750,0,190,1,8,6,6,5470683,-4.02179,-0.2759332093, spa,5470913,435,135,-1.9526116841,3.3422838089,2.1609488211,0,924,96,100,1.570796,1,823,0,90,165,1.751239,0.4003919561, across_horiz,9.1153100079,0.7828226518,7.04613,771,750,134,600,-0.3179384015,0,0,0,0,0,0
246,-1,-0.953813,0,1876,0.5,4.33064967,5477100, act,PP00,4.188505,-4.296094, Counter,0,0,0,-8,-6,0.7770911086,3.926991,4.0205966473,50,750,0,303,1,8,6,6,5474235,-1.95261,-0.7980779888, spa,5474467,402,225,-2.00640464,-0.9000192747,4.6242750874,0,923,97,100,0,0,822,0,0,498,2.235895,3.3902678869, same,-0.9000192747,0.4569160919,3.342281,769,750,307,900,-2.00640464,0,0,0,0,0,0
211,-1,3.866383,0,2177,0.5,4.8339502098,5481441, mir,PP00,-3.644368,4.766402, Counter,0,0,0,-8,-6,1.0003344152,3.926991,3.5272086964,50,750,0,552,1,8,6,6,5478276,-2.006404,2.2235731011, spa,5478507,969,225,-6.2117881,-0.3390017548,2.0674871816,0,923,98,100,4.712389,1,822,0,270,231,-5.650772,0.1735944241, across_vert,3.3053668175,0.8935583423,-0.900019,770,750,194,1200,-1.4453872563,0,0,0,0,0,0
252,-1,2.991639,0,1277,0.5,4.4360756535,5484619, act,PP00,4.990675,3.330641, Counter,0,0,0,-8,-6,0.822169095,3.926991,4.0417936398,50,750,0,497,1,8,6,6,5482354,-6.211788,0.5884913406, spa,5482585,44,225,-2.0511291645,-1.1690187805,1.2778817316,0,924,99,100,0,0,823,0,0,256,-1.221113,0.1666668097, same,-1.1690187805,0.289045827,-0.339002,770,750,221,300,-2.0511291645,0,0,0,0,0,0
144,-1,3.886615,0,1576,0.5,4.358492708,5487727, mir,PP00,3.231187,5.055634, clockwise,0,0,0,-8,-6,1.2567968454,2.356194,4.2534170416,50,750,0,227,1,8,6,6,5485162,-2.05113,1.0021034349, spa,5485393,307,135,2.092277057,-0.2567959822,1.6903226034,0,923,100,100,1.570796,1,822,0,90,293,1.180057,0.2915370032, across_vert,2.974393589,0.1419887547,-1.169019,770,750,253,600,-2.9633536841,0,0,0,0,0,0
250,-1,3.067144,0,1278,0.5,3.7971026318,5490525, act,PP00,4.99514,3.323939, Counter,0,0,0,-8,-6,0.5364738978,3.926991,3.5531803726,50,750,0,201,1,8,6,6,5488259,2.092281,0.5871491509, spa,5488490,59,225,6.2518211927,-1.0923959941,1.4530163911,0,925,101,100,0,0,824,0,0,241,7.087421,0.1898814235, same,-1.0923959941,0.7266610699,-0.256795,770,750,206,300,6.2518211927,0,0,0,0,0,0
353,-1,-5.291392,0,1277,0.5,4.0264147682,5493332, act,PP00,-4.28584,-4.198996, Counter,0,0,0,-8,-6,1.468853736,3.926991,3.3976984577,50,750,0,551,1,8,6,6,5491068,6.251821,-2.3664293336, spa,5491299,100,225,2.0094022285,-1.0489735156,3.2057476671,0,924,102,100,0,0,823,0,0,200,1.965981,0.8461993482, same,-1.0489735156,0.8906945829,-1.092396,771,750,160,300,2.0094022285,0,0,0,0,0,0
265,-1,3.57346,0,1881,0.5,3.7598030235,5496734, mir,PP00,-3.825324,4.622434, Counter,0,0,0,-8,-6,0.6802702208,3.926991,3.9064754052,50,750,0,387,1,8,6,6,5493865,2.009402,2.2621154568, ret,5494096,621,225,-6.0398012234,3.972012765,1.4390267667,0,927,103,100,3.141593,1,825,0,180,279,-1.815922,0.2627495962, across_vert,3.1749057719,0.4960069497,-1.048974,771,750,243,900,2.4079570853,0,0,0,0,0,0
144,-1,-1.795892,0,1276,0.5,4.3443354169,5499531, act,PP00,-1.65265,-5.767906, clockwise,0,0,0,-8,-6,0.6781537371,2.356194,3.3542211106,50,750,0,550,1,8,6,6,5497267,-6.039801,-1.849845471, spa,5497499,95,135,-3.9821715609,0.26173442,6.349487535,0,923,104,100,0,0,822,0,0,205,-7.692451,2.9540773874, same,0.26173442,2.7172564105,3.972014,769,750,181,300,-3.9821715609,0,0,0,0,0,0
239,-1,-3.318096,0,1276,0.5,3.9016536318,5502973, mir,PP00,4.81506,-3.579832, clockwise,0,0,0,-8,-6,0.6991265336,2.356194,1.4017595513,50,750,0,423,1,8,6,6,5500710,-3.982173,-0.6393060298, ret,5500940,72,135,1.4505003969,-7.5155420916,3.9006632875,0,923,105,100,3.141593,1,822,0,180,228,0.832887,2.8646626936, across_horiz,0.8793503056,0.3368740603,0.261736,770,750,198,300,0.2152750571,0,0,0,0,0,0
263,-1,-5.46222,0,2177,0.5,3.7139745898,5506671, mir,PP00,-5.637719,2.053322, clockwise,0,0,0,-8,-6,0.549890415,2.356194,4.1732045687,50,750,0,161,1,8,6,6,5503505,1.450502,2.7923137914, ret,5503738,984,135,-5.9794147789,-1.6166996033,1.5991667285,0,924,106,100,3.141593,1,823,0,180,216,-4.187217,0.1413074424, across_horiz,-9.3077410175,0.9079688712,-7.515542,769,750,181,1200,-2.3950205533,0,0,0,0,0,0
255,-1,4.298128,0,1279,0.5,5.0379364547,5509469, act,PP00,1.007376,5.914828, clockwise,0,0,0,-8,-6,0.7817356877,2.356194,3.189410538,50,750,0,164,1,8,6,6,5507204,-5.979415,1.4021013364, ret,5507433,103,135,-7.4257634846,7.7592313145,2.8349237995,0,926,107,100,4.712389,0,825,0,270,197,-4.972039,0.4534763028, same,1.8444035833,1.599711809,-1.6167,769,750,161,300,-8.4331423626,0,0,0,0,0,0
250,-1,3.191913,0,2181,0.5,4.2605421004,5513760, mir,PP00,3.890966,-4.567317, Counter,0,0,0,-8,-6,0.290155756,3.926991,3.6082521608,50,750,0,611,1,8,6,6,5510590,-7.425765,-0.865191539, ret,5510822,1023,225,0.6943426208,2.8537397437,1.5012439989,0,924,108,100,3.141593,1,823,0,180,177,-3.534799,0.4353239778, across_vert,3.5300877214,0.7757642651,7.75923,769,750,142,1200,-7.7639405036,0,0,0,0,0,0
226,-1,-1.956684,0,1876,0.5,4.3935674452,5517156, act,PP00,3.586061,-4.810422, clockwise,0,0,0,-8,-6,0.6878052139,2.356194,3.7715390594,50,750,0,464,1,8,6,6,5514293,0.694342,-0.9301959557, ret,5514523,703,135,8.4786446018,-2.5688665325,1.3209203507,0,923,109,100,4.712389,0,822,0,270,197,4.280403,0.0700576413, same,2.2415575898,0.5630574955,2.853738,769,750,160,900,4.8925856148,0,0,0,0,0,0
228,-1,2.014455,0,2178,0.5,4.7156908192,5520855, act,PP00,-3.872103,4.583319, Counter,0,0,0,-8,-6,1.4808840844,3.926991,1.0587434469,50,750,0,437,1,8,6,6,5517688,8.478645,2.2722784211, ret,5517920,1009,225,4.9621506341,6.2421662602,6.2315766557,0,925,110,100,1.570796,1,824,0,90,191,4.606542,3.2467913255, across_vert,1.6588477475,1.5039012459,-2.568864,771,750,164,1200,8.8342533764,0,0,0,0,0,0
265,-1,0.751706,0,1277,0.5,4.37455127,5524298, mir,PP00,2.419679,-5.490461, Counter,0,0,0,-8,-6,0.3169726828,3.926991,3.6275810919,50,750,0,492,1,8,6,6,5522033,4.96215,-1.1556981343, spa,5522264,118,225,8.9172190183,4.7067758466,1.2362718224,0,924,111,100,4.712389,1,823,0,270,182,7.381829,0.2991548151, across_vert,2.2870960959,0.6201443245,6.242167,770,750,143,300,3.4267591835,0,0,0,0,0,0
228,-1,1.500106,0,2192,0.5,4.2637761291,5528011, act,PP00,-5.071219,-3.206671, Counter,0,0,0,-8,-6,0.5541446294,3.926991,1.4650620316,50,750,0,183,1,8,6,6,5524830,8.917218,-2.5777415017, ret,5525062,1064,225,-0.2929458057,2.4323805815,4.150004556,0,939,112,100,1.570796,1,838,0,90,136,3.845999,0.7938276496, across_horiz,5.6390511104,2.8020322771,4.706777,769,750,103,1200,4.778272229,0,0,0,0,0,0
156,-1,-2.159467,0,1576,0.5,4.1032879783,5531107, mir,PP00,3.861987,-4.591847, Counter,0,0,0,-8,-6,0.8505384235,3.926991,3.6017101222,50,750,0,22,1,8,6,6,5528543,-0.292946,-0.8715194052, ret,5528774,424,225,7.7959580488,-2.5243947497,2.1549632025,0,923,113,100,3.141593,1,822,0,180,176,3.569041,0.0326364186, across_vert,-1.7945377861,1.2717883605,2.43238,769,750,144,600,-0.6578759224,0,0,0,0,0,0
163,-1,-5.818103,0,1580,0.5,4.2709955075,5534206, act,PP00,-5.015127,-3.293707, clockwise,0,0,0,-8,-6,1.228615123,2.356194,3.1352999272,50,750,0,417,1,8,6,6,5531639,7.795958,-2.5604837796, ret,5531869,394,135,1.9201191004,-9.9725193279,3.5800087723,0,927,114,100,4.712389,0,826,0,270,206,2.780831,0.1637658086, same,-6.6788149811,2.1876278407,-2.524396,772,750,175,600,6.9352473111,0,0,0,0,0,0
255,-1,-4.163193,0,1877,0.5,4.6593359298,5537603, mir,PP00,-1.500574,5.809327, clockwise,0,0,0,-8,-6,1.9245869902,2.356194,3.869659977,50,750,0,61,1,8,6,6,5534738,1.920122,1.8235753783, spa,5534969,586,135,4.0744966119,-6.3175724106,2.5721287858,0,924,115,100,1.570796,1,823,0,90,314,0.419548,0.1022794348, across_vert,-7.8181423159,0.5452623608,-9.97252,771,750,273,900,-1.7348302162,0,0,0,0,0,0
242,-1,-3.985841,0,2177,0.5,3.9598507098,5541300, mir,PP00,-5.528386,2.331728, Counter,0,0,0,-8,-6,0.6114861028,3.926991,3.3267240921,50,750,0,141,1,8,6,6,5538136,4.074499,2.742457854, ret,5538366,994,225,-5.3839427591,-5.5841719201,2.4543221402,0,923,116,100,3.141593,0,822,0,180,206,-1.453887,0.3887617146, same,-2.3875114413,1.4540743227,-6.317569,769,750,174,1200,2.4761693128,0,0,0,0,0,0
260,-1,-4.141876,0,2176,0.5,4.1780940725,5545452, act,PP00,5.824069,1.442294, clockwise,0,0,0,-8,-6,0.3411411942,2.356194,1.3377820914,50,750,0,25,1,8,6,6,5542288,-5.383943,0.242759743, spa,5542519,1000,135,-3.1930548449,-1.9509864665,4.134909585,0,923,117,100,0,0,822,0,0,200,0.440126,2.9070632847, same,-1.9509864665,0.8867051061,-5.58417,769,750,170,1200,-3.1930548449,0,0,0,0,0,0
220,-1,3.278395,0,1279,0.5,4.1873369742,5548697, mir,PP00,-2.941692,5.229384, clockwise,0,0,0,-8,-6,0.9510362586,2.356194,4.2945145158,50,750,0,151,1,8,6,6,5546431,-3.193056,2.0832095375, spa,5546661,34,135,-2.0492114363,2.1345458026,1.6837489071,0,926,118,100,1.570796,1,825,0,90,266,-6.134748,0.2085347927, across_vert,-0.8071419376,0.5241778558,-1.950989,772,750,227,300,-7.2785958622,0,0,0,0,0,0
-1,-1,1.681675,0,0,0.5,0,5552148, mir,PP00,5.982885,-0.452874, clockwise,0,1,0,-8,-6,-1,2.356194,4.0353537434,50,750,0,415,1,8,6,6,5549837,-2.04921,-0.0755508445, ret,5550069,-617,135,0,0,2.4239110871,0,923,119,100,3.141593,-1,822,0,180,917,3.933675,0.2089929604, undef,4.8995555075,3.2149181267,2.134549,770,750,356,300,1.1686713763,0,0,0,0,0,0
191,-1,1.586406,0,1577,0.5,3.7175782884,5555245, act,PP00,-5.123408,3.12261, clockwise,0,0,0,-8,-6,1.3139966201,2.356194,3.478231842,50,750,0,579,1,8,6,6,5552681,6.69868,2.5942323786, spa,5552911,395,135,2.5756689408,-2.5366033331,2.5091764465,0,923,120,100,0,0,822,0,0,205,1.575272,0.14085377, same,-2.5366033331,1.0543260565,-1.536204,770,750,172,600,2.5756689408,0,0,0,0,0,0
357,-1,-0.941269,0,1876,0.5,4.0831121228,5558641, act,PP00,-5.784022,1.595334, Counter,0,0,0,-8,-6,0.1909664707,3.926991,4.0732456613,50,750,0,217,1,8,6,6,5555777,2.575672,2.8724666568, spa,5556009,700,225,0.481327562,1.1530756442,1.4980509516,0,923,121,100,0,0,822,0,0,200,-3.20835,0.1016379909, same,1.1530756442,1.20544649,-2.536603,770,750,165,900,0.481327562,0,0,0,0,0,0
259,-1,5.713297,0,2177,0.5,4.0502387078,5562339, act,PP00,-3.899279,4.560221, Counter,0,0,0,-8,-6,1.0921368886,3.926991,3.8800357722,50,750,0,302,1,8,6,6,5559174,0.481327,2.2782227381, ret,5559404,974,225,-3.0874803564,9.9430474055,1.6757001542,0,923,122,100,1.570796,1,822,0,90,226,-3.417952,0.1294696111, across_vert,5.3828267387,0.4540936545,1.153076,769,750,193,1200,0.8117985135,0,0,0,0,0,0
221,-1,3.963125,0,2191,0.5,3.9169855801,5566282, act,PP00,0.490437,-5.979923, clockwise,0,0,0,-8,-6,0.6693834716,2.356194,0.5944638556,50,750,0,429,1,8,6,6,5563104,-3.087482,-1.488965539, ret,5563335,984,135,0.6381333697,1.2183807649,5.517723786,0,925,123,100,4.712389,0,824,0,270,216,-2.597045,3.7947147298, same,7.1983033159,1.0536255847,9.943048,771,750,188,1200,0.1476992985,0,0,0,0,0,0
188,-1,-1.256184,0,2177,0.5,4.1334869383,5569979, act,PP00,5.465942,-2.474567, Counter,0,0,0,-8,-6,0.751957388,3.926991,3.7640309771,50,750,0,561,1,8,6,6,5566815,0.638135,-0.4251174843, spa,5567045,1011,225,2.1338229824,-2.751872148,2.0261926149,0,923,124,100,0,0,822,0,0,189,6.104077,0.105628064, same,-2.751872148,1.1686071629,1.218383,770,750,156,1200,2.1338229824,0,0,0,0,0,0
236,-1,0.684231,0,1878,0.5,4.2953116417,5573391, act,PP00,4.918658,3.436103, clockwise,0,0,0,-8,-6,0.8154574026,2.356194,4.3837812381,50,750,0,47,1,8,6,6,5570511,2.133823,0.6097759829, spa,5570757,694,135,2.8751008835,1.4255105441,1.8877450462,0,923,125,100,0,0,822,0,0,206,7.052481,0.2925385226, same,1.4255105441,0.779749121,-2.751872,770,750,172,900,2.8751008835,0,0,0,0,0,0
299,-1,5.869772,0,2177,0.5,3.9830999476,5577089, act,PP00,4.030945,4.444263, clockwise,0,0,0,-8,-6,0.6372888596,2.356194,4.0855063359,50,750,0,636,1,8,6,6,5573924,2.875101,0.8341274455, ret,5574155,910,135,6.6993889689,10.1073766148,1.3584860953,0,923,126,100,4.712389,1,822,0,270,290,6.906046,0.2295376751, across_vert,5.663115052,0.4916595607,1.425509,769,750,251,1200,2.6684413811,0,0,0,0,0,0
238,-1,4.660214,0,2177,0.5,5.0725709914,5580786, act,PP00,-2.515634,-5.447163, clockwise,0,0,0,-8,-6,1.3083831514,2.356194,3.5643000355,50,750,0,394,1,8,6,6,5577621,6.699386,-2.0034399856, spa,5577853,1017,135,8.1651512644,6.1259765652,2.3396116303,0,924,127,100,0,0,823,0,0,183,4.183752,0.0676440842, same,6.1259765652,0.9635843947,10.107377,770,750,148,1200,8.1651512644,0,0,0,0,0,0
245,-1,0.34804,0,2176,0.5,4.8557529683,5584483, mir,PP00,-1.617227,-5.777938, Counter,0,0,0,-8,-6,1.4750829302,3.926991,3.4361919366,50,750,0,290,1,8,6,6,5581319,8.16515,-1.8437094332, spa,5581550,-594,225,10.245505556,2.4283965179,3.0611397184,0,923,128,100,4.712389,1,822,0,270,1794,6.547923,0.0334343234, across_vert,4.0456225968,1.5526224647,6.125978,769,750,170,1200,4.4675665546,0,0,0,0,0,0
244,-1,-1.702694,0,1576,0.5,3.9886180014,5588669, mir,PP00,-4.351332,-4.13109, clockwise,0,0,0,-8,-6,0.1490447498,2.356194,1.8753458373,50,750,0,127,1,8,6,6,5586105,10.245505,-2.382153176, spa,5586337,399,135,6.004297473,2.5385172186,3.5523579288,0,923,129,100,1.570796,1,822,0,90,201,5.894173,2.3707579933, across_horiz,-1.812817087,1.0325551857,2.428396,769,750,172,600,10.1353842545,0,0,0,0,0,0
276,-1,1.055495,0,1877,0.5,4.3546966104,5592066, mir,PP00,-5.813832,-1.483022, clockwise,0,0,0,-8,-6,0.6173138662,2.356194,3.6137942048,50,750,0,578,1,8,6,6,5589202,6.004293,-2.8918337566, spa,5589432,704,135,2.3558690777,4.7039203942,1.9430229454,0,923,130,100,1.570796,1,822,0,90,196,0.190461,0.0084403281, across_horiz,-1.1099118854,1.3172687511,2.538517,770,750,161,900,3.8388871019,0,0,0,0,0,0
202,-1,-0.901533,0,1584,0.5,4.14191894,5595172, act,PP00,2.13983,-5.605456, clockwise,0,0,0,-8,-6,1.2452538944,2.356194,3.7371481422,50,750,0,241,1,8,6,6,5592598,2.355866,-1.2061292462, ret,5592831,380,135,8.3683376792,-2.6343475962,2.5180225407,0,931,131,100,4.712389,0,830,0,270,220,4.495696,0.082969572, same,2.9711086452,1.1897990742,4.703923,777,750,187,600,6.2285106722,0,0,0,0,0,0
259,-1,3.11086,0,1576,0.5,4.8322829558,5598270, mir,PP00,-1.729921,5.745205, Counter,0,0,0,-8,-6,1.7037551252,3.926991,1.2293434114,50,750,0,234,1,8,6,6,5595705,8.368339,1.8632683374, ret,5595936,396,225,2.9008543087,5.1184998217,6.6409232965,0,923,132,100,3.141593,1,822,0,180,204,6.638418,3.4189413125, across_vert,1.1032188836,1.5182268588,-2.634345,770,750,176,600,10.3759809958,0,0,0,0,0,0
235,-1,-0.879956,0,1577,0.5,4.1436095339,5601367, mir,PP00,-0.136038,-5.998457, clockwise,0,0,0,-8,-6,0.3733242025,2.356194,1.9896139923,50,750,0,442,1,8,6,6,5598802,2.900856,-1.5934712721, spa,5599033,404,135,-0.1663892905,2.187294205,3.7889271466,0,924,133,100,1.570796,1,823,0,90,196,2.764818,2.2846413465, across_vert,2.0512522929,1.1309615975,5.118501,770,750,14,600,5.8320672471,0,0,0,0,0,0
323,-1,-3.279481,0,1277,0.5,4.2461329329,5604167, act,PP00,-2.472733,-5.466772, Counter,0,0,0,-8,-6,1.8581548604,3.926991,4.2024853269,50,750,0,90,1,8,6,6,5601903,-0.166392,-1.9955782992, spa,5602134,40,225,-4.1361451311,0.690270973,3.6529756786,0,924,134,100,0,0,823,0,0,260,-2.639125,0.0413925276, same,0.690270973,1.7534282905,2.187291,770,750,229,300,-4.1361451311,0,0,0,0,0,0
214,-1,-5.2427,0,1880,0.5,4.0789091568,5607567, mir,PP00,-0.894348,-5.932971, Counter,0,0,0,-8,-6,0.290050171,3.926991,3.9330495352,50,750,0,267,1,8,6,6,5604700,-4.136145,-1.7204118818, spa,5604930,738,225,-1.6168341637,-2.7233879214,1.5633391602,0,926,135,100,4.712389,1,824,0,270,162,-5.030493,0.1170502647, across_vert,-1.8290411143,1.1562387245,0.690271,771,750,129,900,-7.5498050117,0,0,0,0,0,0
33,-1,2.818209,0,1276,0.5,4.8035627918,5610363, act,PP00,2.300152,5.541597, Counter,0,0,0,-8,-6,0.2695231078,3.926991,3.5210836919,50,750,0,300,1,8,6,6,5608099,-1.616834,1.177366246, ret,5608330,109,225,4.6041929218,4.4389310143,1.6688738091,0,923,136,100,1.570796,0,822,0,90,191,0.683318,0.1518317559, same,-1.1026653922,1.2475189455,-2.723388,770,750,161,300,2.3040412956,0,0,0,0,0,0
244,-1,5.284616,0,1576,0.5,3.741198225,5613464, mir,PP00,-5.940103,0.845684, Counter,0,0,0,-8,-6,0.4194136547,3.926991,3.428089217,50,750,0,175,1,8,6,6,5610900,4.604193,3.0001744281, spa,5611131,381,225,1.2113000078,1.8917232555,1.9692558489,0,923,137,100,4.712389,1,822,0,270,219,-1.33591,0.0614657984, across_horiz,7.8318259413,1.4883763958,4.438932,770,750,188,600,2.0569827945,0,0,0,0,0,0
217,-1,-3.096235,0,1884,0.5,4.5330229802,5616872, act,PP00,-3.334706,-4.987958, Counter,0,0,0,-8,-6,0.2805896962,3.926991,3.7256260208,50,750,0,619,1,8,6,6,5613995,1.2113,-2.1601025688, ret,5614231,747,225,-6.2847387479,-3.9228605266,3.013790582,0,930,138,100,1.570796,0,823,0,90,153,-2.123406,0.2279220782, same,1.0650974778,2.5052788076,1.891723,770,750,123,900,-2.9500328865,0,0,0,0,0,0
239,-1,1.902932,0,1578,0.5,3.7674264282,5621579, mir,PP00,1.435314,5.825794, Counter,0,0,0,-8,-6,0.9660159551,3.926991,4.4005619714,50,750,0,108,1,8,6,6,5619014,-6.284739,1.3292349163, ret,5619244,440,225,-7.0446668608,5.5334847365,1.9809700444,0,924,139,100,3.141593,1,823,0,180,160,-4.849425,0.3271581333, across_vert,-1.7276214969,0.6877959561,-3.922862,770,750,122,600,-2.6541843968,0,0,0,0,0,0
223,-1,5.019832,0,1283,0.5,4.2046683239,5624383, mir,PP00,5.977973,-0.513653, clockwise,0,0,0,-8,-6,0.3407109056,2.356194,3.4257830171,50,750,0,76,1,8,6,6,5622111,-7.044666,-0.0857137484, ret,5622343,135,135,1.6654665108,1.7740186339,1.5076372236,0,930,140,100,3.141593,1,829,0,180,165,-1.066693,0.1290023615, across_horiz,8.2656463125,1.0379239565,5.533485,770,750,132,300,-3.7988513864,0,0,0,0,0,0
235,-1,4.850329,0,1877,0.5,3.6013587266,5627782, mir,PP00,-5.151342,3.07631, clockwise,0,0,0,-8,-6,0.9259889414,2.356194,3.993224712,50,750,0,258,1,8,6,6,5624915,1.665468,2.6032447432, ret,5625147,664,135,-4.5233892987,8.964154714,1.7853065806,0,924,141,100,3.141593,1,823,0,180,236,-3.485874,0.2565910099, across_horiz,0.7365029266,0.6027266293,1.774019,770,750,202,900,-2.4483601263,0,0,0,0,0,0
164,-1,5.389864,0,1930,0.5,4.3462602587,5631365, mir,PP00,4.819175,-3.57429, Counter,0,1,0,-8,-6,0.6124039321,3.926991,3.7747215383,50,750,0,91,1,8,6,6,5628447,-4.523391,-0.6381555831, ret,5628678,529,225,4.4925163637,6.0123087505,3.5578972147,0,973,142,100,3.141593,0,872,0,180,371,0.295784,1.9790232944, same,4.7674207033,0.9664699882,8.964154,819,750,273,900,-3.9009485793,0,0,0,0,0,0
-1,-1,0.56611,0,0,0.5,0,5634222, act,PP00,-2.517723,-5.446198, clockwise,0,1,0,-8,-6,-1,2.356194,1.3793555487,50,750,0,486,1,8,6,6,5631897,4.492517,-2.0038235053, ret,5632141,-283,135,0,0,8.8568998125,0,1323,143,100,4.712389,-1,822,0,270,583,1.974794,6.1849543133, undef,2.0303455123,3.6719454993,6.012308,769,750,375,300,5.9567551204,0,0,0,0,0,0
252,-1,2.033241,0,2179,0.5,4.3906209333,5637932, act,PP00,-2.511456,5.449091, Counter,0,0,0,-8,-6,0.3816698929,3.926991,4.1074019257,50,750,0,533,1,8,6,6,5634754,3.439032,2.0026730858, spa,5634996,1026,225,4.9078495496,0.5644243094,2.7117212451,0,925,144,100,0,0,824,0,0,174,0.927576,0.5431011711, same,0.5644243094,1.7869501811,-3.41585,771,750,145,1200,4.9078495496,0,0,0,0,0,0
144,-1,-1.536391,0,1876,0.5,4.1258201492,5641328, act,PP00,-5.620193,-2.100815, clockwise,0,0,0,-8,-6,1.7423216185,2.356194,3.3830579251,50,750,0,16,1,8,6,6,5638464,4.907849,-2.7838765049, ret,5638696,709,135,-2.4720349872,-5.3968945461,2.8345222122,0,923,145,100,4.712389,0,822,0,270,191,-0.712344,0.0979403955, same,-3.296082063,0.9942601982,0.564424,769,750,155,900,3.1481595116,0,0,0,0,0,0
278,-1,-5.968985,0,2177,0.5,4.9172945036,5646717, act,PP00,5.972664,-0.57209, Counter,0,0,0,-8,-6,1.1496837264,3.926991,4.4176224119,50,750,0,168,1,8,6,6,5643551,-2.472033,-0.0954933981, spa,5643783,993,225,0.2282545953,-8.6692725154,3.4438027376,0,924,146,100,0,0,823,0,0,207,3.500631,0.7460875747, same,-8.6692725154,1.5480314365,-5.396895,770,750,174,1200,0.2282545953,0,0,0,0,0,0
522,-1,-2.982951,0,2176,0.5,3.7761138426,5650413, act,PP00,1.914615,5.686321, Counter,0,0,0,-8,-6,0.7020020323,3.926991,3.9096974273,50,750,0,436,1,8,6,6,5647249,0.228255,1.2460139866, ret,5647480,900,225,5.9433384235,-1.0970984708,1.4221080029,0,923,147,100,1.570796,0,822,0,90,300,2.14287,0.0725020173, same,-6.7834188072,0.6476039533,-8.669272,769,750,123,1200,4.0287237711,0,0,0,0,0,0
208,-1,4.784614,0,1876,0.5,4.7379951525,5653809, mir,PP00,-1.185525,5.881712, clockwise,0,0,0,-8,-6,1.1332261921,2.356194,3.3752217975,50,750,0,462,1,8,6,6,5650945,5.943338,1.7696926004, spa,5651176,720,135,8.291429308,2.436517795,2.3143296632,0,923,148,100,1.570796,1,822,0,90,180,4.757813,0.0350870895, across_vert,1.2509969247,1.1460163816,-1.097098,769,750,142,900,2.4097179497,0,0,0,0,0,0
43,-1,1.947517,0,1276,0.5,3.980656419,5656607, act,PP00,-5.980039,-0.489004, clockwise,0,0,0,-8,-6,0.7160312347,2.356194,3.8999074358,50,750,0,401,1,8,6,6,5654344,8.291431,-3.0600014802, spa,5654574,64,135,5.5459125426,-0.7980024152,1.6045906957,0,923,149,100,0,0,822,0,0,236,2.311392,0.1690106837, same,-0.7980024152,0.7195487773,2.436521,769,750,200,300,5.5459125426,0,0,0,0,0,0
-1,-1,5.046403,0,0,0.5,0,5659451, mir,PP00,-1.357549,5.844404, Counter,0,1,0,-8,-6,-1,3.926991,3.8769457157,50,750,0,630,1,8,6,6,5657140,5.545914,1.7990308409, spa,5657371,-64,225,0,0,7.3282854021,0,1324,150,100,4.712389,-1,870,0,270,364,4.188365,5.1454610099, undef,2.8029760781,3.1828243922,-0.798001,819,750,15,300,7.7893420405,0,0,0,0,0,0
242,-1,-3.161198,0,1576,0.5,4.2907728222,5662549, mir,PP00,3.844348,-4.606624, Counter,0,0,0,-8,-6,0.7800623013,3.926991,4.1379042961,50,750,0,178,1,8,6,6,5659985,1.944938,-0.8753545305, ret,5660216,257,225,10.0147724235,-3.5423337829,1.8188742445,0,923,151,100,3.141593,1,822,0,180,343,5.789286,0.0250964703, across_vert,-2.7800607533,1.0137154729,1.445426,769,750,307,600,1.5637997086,0,0,0,0,0,0
230,-1,-4.687512,0,1877,0.5,4.3137134919,5665947, mir,PP00,-5.8897,-1.145177, clockwise,0,0,0,-8,-6,1.3901133988,2.356194,3.1278403725,50,750,0,476,1,8,6,6,5663082,10.014772,-2.9495515804, ret,5663312,701,135,0.6076336677,-2.3152498773,3.5721857235,0,923,152,100,3.141593,1,822,0,180,199,4.125072,0.3524818637, across_horiz,-7.0597753411,1.8295904611,-3.542335,769,750,168,900,7.6425095105,0,0,0,0,0,0
221,-1,-0.760994,0,1576,0.5,4.5754370298,5669881, act,PP00,-5.795195,1.554257, Counter,0,0,0,-8,-6,0.4248881562,3.926991,0.6730006005,50,750,0,355,1,8,6,6,5667318,0.607633,2.8795615756, spa,5667549,545,225,-1.5128363835,1.3594756752,4.3397583354,0,923,153,100,0,0,822,0,0,55,-5.187562,0.143623834, same,1.3594756752,3.7712463453,-2.315251,769,750,23,600,-1.5128363835,0,0,0,0,0,0
163,-1,-2.124564,0,2177,0.5,4.1827356118,5673576, mir,PP00,4.88482,-3.484039, clockwise,0,0,0,-8,-6,2.1147856818,2.356194,3.6632794605,50,750,0,525,1,8,6,6,5670412,-1.512836,-0.6195553518, ret,5670642,1018,135,4.0723739549,-6.3089939386,2.9450182826,0,923,154,100,3.141593,1,822,0,180,182,3.371984,0.1442735285, across_horiz,2.0598661812,0.6859590723,1.359475,769,750,143,1200,2.6715954946,0,0,0,0,0,0
149,-1,-1.1578,0,1881,0.5,4.5537769253,5676977, mir,PP00,3.076557,5.151194, Counter,0,0,0,-8,-6,1.898378291,3.926991,0.7178285358,50,750,0,553,1,8,6,6,5674108,4.072375,1.0324004254, spa,5674339,698,225,3.0350568587,-2.1951192961,6.209446488,0,928,155,100,4.712389,1,822,0,270,202,7.148932,3.5576440846, across_vert,-5.2716751616,0.7534241124,-6.308994,769,750,177,900,8.1862512154,0,0,0,0,0,0
142,-1,2.468124,0,1876,0.5,4.4910302657,5680374, act,PP00,-3.775468,4.663244, clockwise,0,0,0,-8,-6,0.4336040434,2.356194,3.7066688352,50,750,0,279,1,8,6,6,5677511,3.035057,2.2513772636, spa,5677741,-217,135,-1.1843010484,-1.7512315936,2.3213712251,0,923,156,100,0,0,822,0,0,1117,-0.740411,0.1927608496, same,-1.7512315936,1.6950063321,-2.19512,769,750,151,900,-1.1843010484,0,0,0,0,0,0
132,-1,2.35979,0,1876,0.5,4.6371207153,5683770, mir,PP00,-4.370297,4.111022, clockwise,0,0,0,-8,-6,2.0912987877,2.356194,4.0721300551,50,750,0,369,1,8,6,6,5680906,-1.184299,2.3867550997, spa,5681137,550,135,-1.3139362617,2.4894240395,3.989312478,0,923,157,100,1.570796,1,822,0,90,350,-5.554596,1.3513151286, across_horiz,-1.8808696959,0.5466985617,-1.751232,769,750,139,900,-5.4249605747,0,0,0,0,0,0
327,-1,-3.464062,0,1276,0.5,4.6247581281,5686567, mir,PP00,0.745618,-5.953491, clockwise,0,0,0,-8,-6,1.6427959179,2.356194,3.4353672967,50,750,0,248,1,8,6,6,5684303,-1.313937,-1.4462045706, spa,5684533,96,135,-3.9178713127,-0.8601228101,3.0887275511,0,923,158,100,1.570796,1,822,0,90,204,-0.568319,0.0946007981, across_vert,-0.1145088364,1.351330835,2.489429,769,750,172,300,2.0356190953,0,0,0,0,0,0
159,-1,-3.043156,0,1578,0.5,5.163243697,5689666, mir,PP00,5.588774,-2.18303, clockwise,0,0,0,-8,-6,1.3987645688,2.356194,1.0948734592,50,750,0,608,1,8,6,6,5687099,-3.917874,-0.3723852753, ret,5687331,-237,135,3.3737710912,-6.9290574459,6.7354287196,0,925,159,100,3.141593,1,824,0,180,837,1.6709,3.3045770309, across_horiz,0.8427460358,2.0320871199,-0.860126,770,750,176,600,-0.031969745,0,0,0,0,0,0
164,-1,-2.586646,0,1623,0.5,4.033098937,5715067, mir,PP00,4.140468,4.342411, Counter,0,1,0,-8,-6,0.3668573158,3.926991,4.0632811046,50,750,0,36,1,8,6,6,5712457,3.373772,0.8091996186, ret,5712688,164,225,7.4132662665,1.6547929428,3.8117660408,0,970,160,100,3.141593,0,869,0,180,436,7.51424,3.1167418552, same,-6.8280849777,0.3281668698,-6.929057,818,750,264,600,7.6152122642,0,0,0,0,0,0
319,-1,4.74492,0,1277,0.5,4.0329033764,5717865, mir,PP00,-5.143065,3.090127, clockwise,0,0,0,-8,-6,0.5453066618,2.356194,0.5748111435,50,750,0,443,1,8,6,6,5715600,7.413268,2.6005603317, ret,5715831,75,135,1.2437346271,8.8615160064,4.8627196989,0,923,161,100,3.141593,1,822,0,180,225,2.270203,3.7021701744, across_horiz,0.6283236381,0.6152428627,1.654793,769,750,191,300,3.2966699469,0,0,0,0,0,0
-1,-1,4.230657,0,0,0.5,0,5721612, act,PP00,3.815121,-4.630859, clockwise,0,1,0,-8,-6,-1,2.356194,1.2389954375,50,750,0,268,1,8,6,6,5718397,1.243734,-0.8816825054, ret,5718629,876,135,0,0,9.2869621281,0,2226,162,100,4.712389,-1,823,0,270,324,5.058855,6.1249307205, undef,8.4536466052,4.1620314076,8.861516,770,750,137,1200,5.4667260513,0,0,0,0,0,0
251,-1,-1.564544,0,1877,0.5,3.7712183769,5725011, act,PP00,-2.641332,-5.387334, Counter,0,0,0,-8,-6,0.3037880527,3.926991,4.0937138083,50,750,0,514,1,8,6,6,5722145,9.281845,-2.0266422157, spa,5722377,594,225,5.2675113104,2.449788617,2.0022210432,0,923,163,100,0,0,822,0,0,306,6.640513,0.3146590228, same,2.449788617,1.3837739677,3.82279,770,750,270,900,5.2675113104,0,0,0,0,0,0
224,-1,-3.027601,0,1876,0.5,3.623396756,5728418, mir,PP00,2.449123,-5.47739, Counter,0,0,0,-8,-6,0.1785757988,3.926991,3.4499676224,50,750,0,356,1,8,6,6,5725543,5.267512,-1.1503289773, spa,5725785,732,225,9.2307675985,0.9356555491,1.5521093275,0,923,164,100,4.712389,1,822,0,270,168,7.716635,0.0768118784, across_vert,-1.5134683238,1.2967216503,2.449789,769,750,134,900,3.7533784806,0,0,0,0,0,0
232,-1,3.170566,0,1876,0.5,4.1948232924,5731814, act,PP00,-5.568229,2.23491, Counter,0,0,0,-8,-6,0.7197989895,3.926991,3.7194758751,50,750,0,577,1,8,6,6,5728951,9.230767,2.7599073584, ret,5729181,732,225,1.9958789893,7.0721359074,1.5343667706,0,923,165,100,1.570796,0,822,0,90,168,3.662538,0.1498426128, same,4.8372262857,0.6647251682,0.935656,770,750,134,900,7.5641073627,0,0,0,0,0,0
217,-1,2.067613,0,1580,0.5,5.0691427958,5734915, act,PP00,-3.309797,-5.004522, Counter,0,0,0,-8,-6,1.4471925216,3.926991,4.263603299,50,750,0,554,1,8,6,6,5732346,1.995877,-2.1551169606, spa,5732578,369,225,-2.1612833005,6.2247725395,2.8173301269,0,927,166,100,0,0,826,0,0,231,-1.31392,0.0803411934, same,6.2247725395,1.2897964119,7.072135,773,750,104,600,-2.1612833005,0,0,0,0,0,0
5,-1,0.667429,0,1276,0.5,4.5482040593,5737863, act,PP00,2.261844,-5.557343, clockwise,0,0,0,-8,-6,0.2938230448,2.356194,1.7109744233,50,750,0,152,1,8,6,6,5735599,-2.161283,-1.1842692371, ret,5735830,107,135,4.0101537518,-0.9803223512,3.1694275602,0,923,167,100,4.712389,0,822,0,270,193,0.100561,2.5378646232, same,4.5770217194,0.3377398922,6.224772,770,750,3,300,1.7483124279,0,0,0,0,0,0
134,-1,-1.363757,0,2179,0.5,4.7439072399,5741565, act,PP00,-5.987735,-0.383437, Counter,0,0,0,-8,-6,1.4988318316,3.926991,2.7973589953,50,750,0,105,1,8,6,6,5738396,4.010154,-3.077642903, spa,5738629,1058,225,0.8245676364,1.8218297622,3.3615577689,0,925,168,100,0,0,824,0,0,142,-1.977581,0.2386461159, same,1.8218297622,1.6240798215,-0.98032,770,750,110,1200,0.8245676364,0,0,0,0,0,0
250,-1,-0.283834,0,1287,0.5,4.6907003665,5744374, mir,PP00,5.618378,-2.105664, clockwise,0,0,0,-8,-6,0.5083588025,2.356194,2.942835982,50,750,0,457,1,8,6,6,5742100,0.824568,-0.3585790739, ret,5742331,-327,135,8.1993026342,-4.1458556692,2.7611157523,0,934,169,100,3.141593,1,833,0,180,627,6.442946,0.1567705266, across_horiz,3.5781882776,2.0959864231,1.82183,770,750,142,300,4.6865907036,0,0,0,0,0,0
167,-1,-0.988931,0,1878,0.5,3.4178742362,5747772, act,PP00,-5.102336,3.156924, clockwise,0,0,0,-8,-6,1.9322598954,2.356194,3.2130668654,50,750,0,473,1,8,6,6,5744907,8.199305,2.5875210992, spa,5745137,722,135,4.0696729514,-5.1185613737,3.5820571095,0,924,170,100,0,0,822,0,0,178,3.096969,0.3625757356, same,-5.1185613737,1.2872214785,-4.145855,769,750,143,900,4.0696729514,0,0,0,0,0,0
-1,-1,0.31233,0,0,0.5,0,5751782, act,PP00,2.550573,5.430891, clockwise,0,1,0,-8,-6,-1,2.356194,0.8199661533,50,750,0,610,1,8,6,6,5748573,4.069675,1.1317289342, ret,5748803,796,135,0,0,9.0058808288,0,2223,171,100,4.712389,-1,870,0,270,404,6.620248,5.8813823687, undef,-1.1278270501,4.1244984602,-5.118561,818,750,257,1200,2.6295152764,0,0,0,0,0,0
234,-1,-1.560139,0,1578,0.5,3.7432544192,5754882, act,PP00,1.273922,-5.863201, Counter,0,0,0,-8,-6,0.1375834676,3.926991,3.7741591839,50,750,0,134,1,8,6,6,5752316,5.180089,-1.3568475158, spa,5752547,310,225,2.8854492401,0.734499744,1.2585695088,0,924,172,100,0,0,823,0,0,290,6.454011,0.1846281703, same,0.734499744,0.9363578709,4.303062,771,750,254,600,2.8854492401,0,0,0,0,0,0
-1,-1,4.917029,0,0,0.5,0,5758025, act,PP00,-4.301913,4.182529, clockwise,0,1,0,-8,-6,-1,2.356194,0.5206150176,50,750,0,500,1,8,6,6,5755414,2.88545,2.3702644929, spa,5755645,300,135,0,0,9.2675471691,0,1624,173,100,0,-1,871,0,0,300,-1.416463,5.9510938661, undef,0.6748082238,4.316453303,0.7345,769,750,195,600,-1.3567730831,0,0,0,0,0,0
230,-1,-1.278198,0,2177,0.5,4.8875707598,5762405, act,PP00,5.67325,-1.953007, Counter,0,0,0,-8,-6,0.9495702145,3.926991,4.4261923982,50,750,0,304,1,8,6,6,5759242,-1.356771,-0.331541702, spa,5759471,954,225,0.5033509413,-3.1383201487,1.8969683837,0,923,174,100,0,0,822,0,0,246,4.316479,0.2366708852, same,-3.1383201487,0.7107272839,0.674809,769,750,211,1200,0.5033509413,0,0,0,0,0,0
163,-1,-1.856248,0,1576,0.5,4.7124428862,5765502, mir,PP00,5.861424,1.282072, clockwise,0,0,0,-8,-6,1.5545870625,2.356194,3.8039212051,50,750,0,421,1,8,6,6,5762938,0.503351,0.2153390572, spa,5763170,231,135,4.0750960794,-5.4279941333,2.3073288131,0,923,175,100,1.570796,1,822,0,90,369,6.364775,0.1620569779, across_horiz,0.4334297534,0.5906847726,-3.13832,769,750,174,600,2.7930281185,0,0,0,0,0,0
169,-1,0.453374,0,1576,0.5,4.3811790231,5768604, mir,PP00,1.187217,5.88137, Counter,0,0,0,-8,-6,0.8899456808,3.926991,2.708735732,50,750,0,406,1,8,6,6,5766041,4.075099,1.3716123502, spa,5766271,257,225,1.7280228422,-1.8937033048,3.6521217898,0,923,176,100,4.712389,1,822,0,270,343,5.262316,0.0489451051, across_vert,-3.0809192039,2.7132310039,-5.427996,769,750,307,600,7.6093932354,0,0,0,0,0,0
171,-1,3.271595,0,1577,0.5,4.3772913834,5771702, mir,PP00,3.052817,5.165299, Counter,0,0,0,-8,-6,0.3596714784,3.926991,4.2160088612,50,750,0,544,1,8,6,6,5769136,1.728023,1.0370027795, spa,5769368,353,225,0.6717825219,2.2153532465,0.6939812024,0,924,177,100,4.712389,1,823,0,270,247,4.78084,0.0156009822, across_vert,-0.8374624988,0.3187087418,-1.893704,770,750,205,600,5.8370816729,0,0,0,0,0,0
179,-1,-2.07833,0,1876,0.5,3.7918913899,5775098, act,PP00,4.190976,-4.293683, Counter,0,0,0,-8,-6,0.4311915554,3.926991,0.8714637789,50,750,0,624,1,8,6,6,5772234,0.671783,-0.7975025961, spa,5772465,675,225,0.6204291098,-2.0269772718,4.6525687106,0,923,178,100,0,0,822,0,0,225,4.862759,3.3716387801, same,-2.0269772718,0.849738375,2.215353,769,750,13,900,0.6204291098,0,0,0,0,0,0
-1,-1,3.964361,0,0,0.5,0,5777944, act,PP00,-0.322278,5.991338, clockwise,0,1,0,-8,-6,-1,2.356194,0.0678113837,50,750,0,466,1,8,6,6,5775630,0.620429,1.6245351925, spa,5775861,-703,135,0,0,4.187376218,0,924,179,100,0,-1,823,0,0,1003,0.298151,0.6920841911, undef,0.8075541325,4.4952920269,-2.026977,769,750,349,300,-2.5363807782,0,0,0,0,0,0
228,-1,3.681566,0,1876,0.5,3.5963796147,5781834, act,PP00,5.266882,2.874013, clockwise,0,0,0,-8,-6,0.6176245694,2.356194,3.779528763,50,750,0,440,1,8,6,6,5778970,-2.536379,0.4995176586, ret,5779201,568,135,3.9269394699,7.7520131221,1.7714046092,0,923,180,100,4.712389,0,822,0,270,332,2.730503,0.5081957344, same,4.8780025497,0.6455843054,0.807553,769,750,298,900,-1.3399440986,0,0,0,0,0,0
251,-1,2.91627,0,1280,0.5,4.2689398143,5784636, mir,PP00,3.551841,-4.835744, Counter,0,0,0,-8,-6,0.589247644,3.926991,2.0220291139,50,750,0,317,1,8,6,6,5782368,3.926937,-0.9372909852, spa,5782598,59,225,8.1207286991,7.1100629491,3.1956599245,0,926,181,100,4.712389,1,824,0,270,241,7.478778,2.3168634526, across_vert,3.5582207813,0.2895488278,7.752014,770,750,6,300,3.2849850635,0,0,0,0,0,0
192,-1,1.790772,0,1877,0.5,4.2170857433,5788032, mir,PP00,-2.775812,-5.319292, Counter,0,0,0,-8,-6,0.7453477207,3.926991,4.077729422,50,750,0,170,1,8,6,6,5785168,8.120728,-2.0517618063, ret,5785399,707,225,6.6166581492,-2.2567793469,1.2846679658,0,924,182,100,3.141593,0,823,0,180,193,5.344916,0.0819806933, same,5.8383237875,0.4573395517,7.110064,770,750,158,900,4.0731752529,0,0,0,0,0,0
-1,-1,3.282388,0,0,0.5,0,5791478, mir,PP00,-2.305995,5.539168, Counter,0,1,0,-8,-6,-1,3.926991,3.9350777204,50,750,0,373,1,8,6,6,5788567,6.616656,1.9652810362, spa,5788797,716,225,0,0,9.9644844328,0,1924,183,100,4.712389,-1,870,0,270,184,4.310661,7.4554564349, undef,1.6658021072,3.5090279978,-2.25678,819,750,157,900,8.2332430643,0,0,0,0,0,0
225,-1,-5.923658,0,1284,0.5,3.8187173352,5794890, act,PP00,2.843415,-5.283464, Counter,0,0,0,-8,-6,0.3248298729,3.926991,3.3339222749,50,750,0,291,1,8,6,6,5792619,2.694075,-1.0770790604, spa,5792850,98,225,1.4740503163,-4.7036342556,2.5595342515,0,924,184,100,0,0,822,0,0,202,5.53749,0.0864123154, same,-4.7036342556,2.1482920631,-0.640194,769,750,169,300,1.4740503163,0,0,0,0,0,0
232,-1,1.126264,0,2177,0.5,4.1784472044,5798588, act,PP00,1.418552,5.829898, Counter,0,0,0,-8,-6,0.277214309,3.926991,0.761299177,50,750,0,413,1,8,6,6,5795423,1.47405,1.3321111004, ret,5795654,972,225,6.5168272936,3.3319364646,4.235731236,0,923,185,100,1.570796,0,822,0,90,228,2.892602,3.4880074392, same,-2.4979605728,0.4705094878,-4.703634,769,750,1,1200,5.098275649,0,0,0,0,0,0
217,-1,-2.667019,0,2176,0.5,3.9411144464,5802284, mir,PP00,-0.111882,-5.998957, clockwise,0,0,0,-8,-6,0.3590988628,2.356194,2.5999830916,50,750,0,118,1,8,6,6,5799120,6.516826,-1.5894444069, ret,5799352,985,135,3.3495241901,-5.6105559515,2.9983891935,0,923,186,100,3.141593,1,822,0,180,215,6.404944,1.7703676561, across_vert,0.2765168931,0.8689226746,3.331938,769,750,12,1200,9.4603648296,0,0,0,0,0,0
221,-1,-5.366139,0,1576,0.5,4.0556936792,5805379, act,PP00,-5.995019,0.244418, Counter,0,0,0,-8,-6,0.2900991469,3.926991,1.4506769532,50,750,0,586,1,8,6,6,5802817,3.349525,3.1008450412, spa,5803046,460,225,0.4742242784,-2.4908376483,3.2631848302,0,923,187,100,0,0,822,0,0,140,-2.645494,0.1798716928, same,-2.4908376483,2.7932139904,-5.610557,769,750,107,600,0.4742242784,0,0,0,0,0,0
238,-1,0.887498,0,1883,0.5,4.1126147308,5808782, mir,PP00,4.958513,3.378336, Counter,0,0,0,-8,-6,0.4008033136,3.926991,4.2973898826,50,750,0,174,1,8,6,6,5805911,0.474224,0.5980789948, spa,5806142,639,225,1.2643126468,1.6775855972,1.0692326106,0,923,188,100,4.712389,1,822,0,270,261,5.432737,0.4022261111, across_horiz,-3.2809263378,0.2662031859,-2.490838,769,750,223,900,4.642649321,0,0,0,0,0,0
160,-1,3.020281,0,1576,0.5,3.7553936066,5811878, mir,PP00,5.847834,1.342695, clockwise,0,0,0,-8,-6,1.3663233438,2.356194,3.6628241246,50,750,0,451,1,8,6,6,5809314,1.264313,0.2256937007, ret,5809545,427,135,10.7074115579,0.7677107439,2.2900325539,0,923,189,100,3.141593,1,822,0,180,173,7.112147,0.1159726233, across_horiz,5.2728525016,0.8077365867,1.677586,769,750,141,600,3.5168832224,0,0,0,0,0,0
227,-1,1.927568,0,1878,0.5,4.1745114147,5815283, act,PP00,-5.886828,1.159856, Counter,0,0,0,-8,-6,0.2069136671,3.926991,3.6356175959,50,750,0,461,1,8,6,6,5812417,10.707413,2.9470586932, spa,5812648,709,225,8.3439260858,4.2910543217,1.5470620759,0,925,190,100,0,0,824,0,0,191,4.820585,0.2043214196, same,4.2910543217,1.1358269892,0.767712,770,750,160,900,8.3439260858,0,0,0,0,0,0
-1,-1,5.266376,0,0,0.5,0,5818132, act,PP00,-5.920198,0.975322, Counter,0,1,0,-8,-6,-1,3.926991,4.1153520166,50,750,0,522,1,8,6,6,5815823,8.343926,2.9783144542, ret,5816053,-232,225,0,0,9.4421551162,0,1323,191,100,1.570796,-1,870,0,90,532,2.423728,5.6821585599, undef,7.7388147215,4.7599965563,4.291054,819,750,70,300,5.8714876738,0,0,0,0,0,0
-1,-1,2.982538,0,0,0.5,0,5821325, act,PP00,1.774485,-5.731597, clockwise,0,1,0,-8,-6,-1,2.356194,2.9576198082,50,750,0,379,1,8,6,6,5818665,-0.048711,-1.2705584035, ret,5818897,262,135,0,0,3.8757487503,0,972,192,100,4.712389,-1,871,0,270,338,1.725774,2.0050827439, undef,6.7355779683,2.8706660064,8.714135,819,750,238,600,3.7043318071,0,0,0,0,0,0
94,-1,-4.712613,0,1325,0.5,4.0264152596,5824183, act,PP00,-1.822232,-5.716596, clockwise,0,1,0,-8,-6,0.5005805893,2.356194,3.5600478269,50,750,0,77,1,8,6,6,5821857,5.478816,-1.8793756138, spa,5822101,91,135,7.4259989917,-2.7654328285,5.3740652226,0,972,193,100,0,0,871,0,0,209,3.656584,3.4335823496, same,-2.7654328285,1.4399022838,1.003983,818,750,175,300,7.4259989917,0,0,0,0,0,0
252,-1,2.463953,0,1276,0.5,3.9211932673,5826981, act,PP00,-2.941692,5.229384, clockwise,0,0,0,-8,-6,1.0605829555,2.356194,3.3178369961,50,750,0,139,1,8,6,6,5824715,7.425998,2.0832095375, spa,5824947,117,135,3.3404581378,-1.6215839376,2.1447105629,0,923,194,100,0,0,822,0,0,183,4.484306,0.0480771439, same,-1.6215839376,1.0360504635,-2.765431,770,750,148,300,3.3404581378,0,0,0,0,0,0
223,-1,4.378054,0,1577,0.5,4.3876517467,5830079, act,PP00,-0.065865,5.999639, clockwise,0,0,0,-8,-6,0.6648786449,2.356194,4.078931427,50,750,0,556,1,8,6,6,5827513,3.34046,1.5817740463, ret,5827745,399,135,0.2418446627,7.3449421664,1.5288243478,0,924,195,100,4.712389,0,823,0,270,201,3.274595,0.117309628, same,1.3453037209,0.746636075,-1.621585,770,750,164,600,0.3077067741,0,0,0,0,0,0
277,-1,1.351305,0,2178,0.5,4.211013357,5834593, act,PP00,-0.276315,-5.993634, Counter,0,0,0,-8,-6,0.9713874475,3.926991,0.9956436685,50,750,0,84,1,8,6,6,5831428,0.241842,-1.6168651216, spa,5831658,1019,225,-2.8931331331,4.4862790419,5.2422447327,0,925,196,100,0,0,824,0,0,181,-0.034473,3.2519521298, same,4.4862790419,1.0189051554,7.344939,770,750,152,1200,-2.8931331331,0,0,0,0,0,0
208,-1,4.363183,0,1278,0.5,4.286368064,5837391, mir,PP00,5.998737,-0.123096, clockwise,0,0,0,-8,-6,0.2215956763,2.356194,0.2997500654,50,750,0,54,1,8,6,6,5835125,-2.893133,-0.02051744, spa,5835356,269,135,0.0446850242,1.4253649281,8.204319266,0,925,197,100,1.570796,1,824,0,90,31,3.105604,3.9648928197, across_horiz,7.4241010158,4.01783077,4.486279,771,750,1,300,0.1677849278,0,0,0,0,0,0
229,-1,-4.563714,0,1888,0.5,4.5880607303,5840799, mir,PP00,0.361907,-5.989076, clockwise,0,0,0,-8,-6,0.6768818618,2.356194,4.0193276902,50,750,0,501,1,8,6,6,5837923,0.044687,-1.510441865, spa,5838154,732,135,-2.768894848,-1.7501272187,1.5940829887,0,936,198,100,1.570796,1,823,0,90,168,0.406594,0.1473130477, across_vert,-1.3882242325,0.7698880793,1.425362,770,750,134,900,3.2201797436,0,0,0,0,0,0
233,-1,1.302441,0,1280,0.5,4.480646726,5843598, mir,PP00,-5.165444,3.05257, Counter,0,0,0,-8,-6,1.2589691705,3.926991,4.1712127911,50,750,0,210,1,8,6,6,5841331,-2.768898,2.6078468421, spa,5841561,78,225,-6.8779040988,-2.8065660529,1.6088964082,0,926,199,100,4.712389,1,824,0,270,222,-7.934342,0.0763120308, across_horiz,2.3588788206,0.2736152069,-1.750129,771,750,183,300,-3.8253349264,0,0,0,0,0,0
202,-1,-3.600392,0,1876,0.5,4.4502758002,5846993, act,PP00,5.947255,-0.793826, clockwise,0,0,0,-8,-6,0.6026017986,2.356194,4.1875540318,50,750,0,298,1,8,6,6,5844130,-6.877904,-0.132693388, spa,5844361,563,135,-3.507361785,-0.229850319,1.1251041456,0,923,200,100,0,0,822,0,0,337,-0.930649,0.0878640033, same,-0.229850319,0.4346383438,-2.806566,770,750,143,900,-3.507361785,0,0,0,0,0,0
188,-1,-5.853362,0,2178,0.5,4.0095178563,5850691, mir,PP00,-2.091921,-5.62351, Counter,0,0,0,-8,-6,1.2011215145,3.926991,3.8452351878,50,750,0,312,1,8,6,6,5847526,-3.507364,-1.926930408, ret,5847756,1054,225,-3.8334884133,-9.7110766621,3.8465321979,0,924,201,100,3.141593,0,823,0,180,146,-5.599285,0.5498583185, same,-1.9956467262,2.095552365,-0.229852,770,750,115,1200,-7.3650802504,0,0,0,0,0,0
153,-1,-3.841122,0,2176,0.5,4.2974588927,5854386, act,PP00,1.242425,5.869956, clockwise,0,0,0,-8,-6,1.3664877644,2.356194,3.5771405931,50,750,0,585,1,8,6,6,5851222,-3.83349,1.3622163907, spa,5851454,1026,135,-6.1472564701,-6.15488565,2.1554907756,0,923,202,100,0,0,822,0,0,174,-2.591065,0.0998833804, same,-6.15488565,0.6891196308,-9.711078,770,750,136,1200,-6.1472564701,0,0,0,0,0,0
175,-1,-0.344986,0,1578,0.5,4.1370954545,5857485, mir,PP00,-1.498346,5.809902, clockwise,0,0,0,-8,-6,0.8117105421,2.356194,3.8425084485,50,750,0,558,1,8,6,6,5854919,-6.147255,1.823191878, ret,5855150,213,135,-5.4898225341,3.3091375893,3.4396843325,0,924,203,100,3.141593,1,823,0,180,387,-7.645601,1.6811975873, across_vert,-3.9991088425,0.9467762032,-6.154888,771,750,216,600,-9.8013807318,0,0,0,0,0,0
249,-1,4.220263,0,1879,0.5,4.1932496721,5862175, act,PP00,5.930417,0.911125, clockwise,0,0,0,-8,-6,3.6699065139,2.356194,2.984886909,50,750,0,264,1,8,6,6,5859309,-5.489823,0.1524439371, spa,5859540,560,135,-2.9801760283,6.7299108665,6.5374996956,0,926,204,100,0,0,825,0,0,340,0.440594,1.2768479987, same,6.7299108665,1.5907451829,3.309138,772,750,144,900,-2.9801760283,0,0,0,0,0,0
212,-1,4.398712,0,1277,0.5,4.8595645226,5865090, act,PP00,5.528609,-2.331197, Counter,0,0,0,-8,-6,1.0882598022,3.926991,4.1138924721,50,750,0,596,1,8,6,6,5862826,-2.980177,-0.3990388121, ret,5863056,63,225,4.1471375032,0.4688086024,2.4297612298,0,923,205,100,1.570796,0,822,0,90,237,2.548432,0.3626154638, same,2.8000052126,0.9788859638,6.729909,770,750,203,300,-1.3814708751,0,0,0,0,0,0
196,-1,3.103165,0,1586,0.5,3.8207549156,5868938, mir,PP00,-5.390748,2.634356, clockwise,0,0,0,-8,-6,0.6500809069,2.356194,4.2963257025,50,750,0,570,1,8,6,6,5866365,4.147138,2.687041197, ret,5866596,406,135,-2.6218055086,7.115717447,1.4462222354,0,933,206,100,3.141593,1,832,0,180,194,-1.24361,0.2511013879, across_horiz,-0.9093879245,0.5450399406,0.468809,779,750,156,600,0.1345841186,0,0,0,0,0,0
231,-1,2.748772,0,1876,0.5,4.0564087137,5872337, mir,PP00,4.114581,-4.366945, clockwise,0,0,0,-8,-6,0.3557398458,2.356194,0.9384745663,50,750,0,376,1,8,6,6,5869471,-2.621806,-0.8151439384, spa,5869704,694,135,-2.7479887546,2.8749574902,4.0598587069,0,923,207,100,1.570796,1,822,0,90,206,1.492775,3.3204626561, across_vert,6.9895357958,0.383656205,7.115717,769,750,175,900,1.6189591043,0,0,0,0,0,0
260,-1,-1.46706,0,1577,0.5,3.5630254522,5876212, act,PP00,-4.140885,-4.342013, Counter,0,0,0,-8,-6,1.3146705537,3.926991,3.0222124293,50,750,0,597,1,8,6,6,5873647,-2.747988,-2.3324891098, spa,5873879,386,225,-6.9894377686,2.7743886591,3.9333593016,0,924,208,100,0,0,823,0,0,214,-6.888873,0.2677570967, same,2.7743886591,2.3509316512,2.874953,770,750,183,600,-6.9894377686,0,0,0,0,0,0
-1,-1,-3.210127,0,0,0.5,0,5879956, act,PP00,0.430787,-5.984516, Counter,0,1,0,-8,-6,-1,3.926991,1.0653613613,50,750,0,313,1,8,6,6,5876744,-6.989438,-1.4989366737, spa,5876975,2008,225,0,0,4.9218297061,0,2223,209,100,0,-1,870,0,0,-808,-6.558651,5.4929354349, undef,-0.4332634416,0.4288942713,2.774389,818,750,147,1200,-9.7663025986,0,0,0,0,0,0
144,-1,3.279951,0,2176,0.5,3.9510898385,5883690, mir,PP00,4.712965,3.713214, clockwise,0,0,0,-8,-6,1.3872733742,2.356194,0.2096981656,50,750,0,580,1,8,6,6,5880525,-9.766302,0.6673020568, ret,5880757,1177,135,-0.8402474139,2.7800748755,9.0956679898,0,923,210,100,3.141593,0,822,0,180,23,-5.053337,3.6221373552, same,3.779828584,4.0862572604,-0.433263,770,750,163,1200,-9.2664264129,0,0,0,0,0,0
174,-1,-2.765702,0,1876,0.5,3.8329377314,5887098, act,PP00,-2.290054,-5.545778, clockwise,0,0,0,-8,-6,0.893092999,2.356194,3.8209768275,50,750,0,419,1,8,6,6,5884234,-0.840247,-1.9624048514, ret,5884464,629,135,-1.5024408651,-6.6836187144,1.7379015958,0,923,211,100,4.712389,1,822,0,270,271,-3.130301,0.189539308, across_vert,-1.137841942,0.6552692888,2.780076,770,750,234,900,0.7876157464,0,0,0,0,0,0
175,-1,-0.896319,0,1576,0.5,4.0466712269,5890197, act,PP00,1.583408,5.787299, Counter,0,0,0,-8,-6,0.394425974,3.926991,3.9609483915,50,750,0,392,1,8,6,6,5887632,-1.502438,1.3037316688, ret,5887865,-3,225,3.7663232592,1.2056256604,1.812158577,0,923,212,100,1.570796,0,822,0,90,603,0.08097,0.1723108057, same,-4.5816715723,1.2454217973,-6.683618,769,750,121,600,2.1829158647,0,0,0,0,0,0
251,-1,4.976845,0,1577,0.5,5.4972709606,5894492, mir,PP00,-4.666681,3.771219, Counter,0,0,0,-8,-6,2.1618245806,3.926991,3.6452666848,50,750,0,179,1,8,6,6,5891926,3.766322,2.4619225615, spa,5892157,-333,225,-0.4526271719,0.7578953428,4.9770821761,0,923,213,100,4.712389,1,822,0,270,933,-0.900359,0.6629229948, across_horiz,5.4245767454,2.1523346006,1.205626,769,750,270,600,3.318590666,0,0,0,0,0,0
203,-1,-4.200779,0,1584,0.5,4.2673576066,5897597, act,PP00,3.378098,-4.958675, Counter,0,0,0,-8,-6,0.6898387528,3.926991,4.1476504316,50,750,0,402,1,8,6,6,5895024,-0.452627,-0.9727653157, ret,5895256,321,225,2.135181943,-8.3691651633,1.1950345787,0,931,214,100,1.570796,1,822,0,90,279,2.925471,0.2063737155, across_vert,-3.4104913052,0.2988221104,0.757896,769,750,237,600,-1.2429154216,0,0,0,0,0,0
175,-1,-5.943434,0,1876,0.5,4.4954016198,5900993, mir,PP00,-5.487789,2.425731, Counter,0,0,0,-8,-6,1.3131586735,3.926991,3.4056099518,50,750,0,120,1,8,6,6,5898130,2.135184,2.7253918596, ret,5898360,733,225,-7.3093642448,-7.4744651162,2.444567513,0,923,215,100,3.141593,0,822,0,180,167,-3.352605,0.1465797942, same,-4.4124042545,0.9848290453,-8.369165,769,750,132,900,0.6041547751,0,0,0,0,0,0
34,-1,-5.610899,0,1277,0.5,3.2394799634,5903792, act,PP00,5.703256,1.863564, clockwise,0,0,0,-8,-6,0.9142639388,2.356194,1.8929630651,50,750,0,528,1,8,6,6,5901525,-7.309365,0.3158178759, spa,5901758,61,135,-5.3895180703,-3.6910511396,5.0198140498,0,924,216,100,0,0,823,0,0,239,-1.606109,2.3523770354, same,-3.6910511396,1.7531730756,-7.474463,769,750,25,300,-5.3895180703,0,0,0,0,0,0
307,-1,0.955858,0,1276,0.5,3.829640028,5906589, mir,PP00,3.795552,4.646911, clockwise,0,0,0,-8,-6,0.8434756127,2.356194,4.2745159585,50,750,0,194,1,8,6,6,5904325,-5.389519,0.8859008957, ret,5904557,118,135,2.6272647473,1.3815369118,2.4370956381,0,923,217,100,3.141593,1,822,0,180,182,-1.593967,0.7979492779, across_vert,0.5301805505,0.7956707474,-3.691053,769,750,144,300,-5.8151988947,0,0,0,0,0,0
416,-1,-4.444118,0,1593,0.5,4.0846711585,5909703, act,PP00,-1.435872,-5.825656, Counter,0,0,0,-8,-6,1.1974535621,3.926991,3.7393534307,50,750,0,57,1,8,6,6,5907122,2.627264,-1.8124535391, spa,5907352,448,225,-1.0035007794,-0.8133542116,2.7289873298,0,939,218,100,0,0,838,0,0,152,1.191392,0.4510543855, same,-0.8133542116,1.0804793823,1.381538,770,750,119,600,-1.0035007794,0,0,0,0,0,0
213,-1,1.4945,0,1577,0.5,4.2327189322,5912800, act,PP00,5.538394,2.307854, Counter,0,0,0,-8,-6,0.414228556,3.926991,4.2032822401,50,750,0,349,1,8,6,6,5910235,-1.0035,0.3948203248, spa,5910466,344,225,2.9196246773,-2.4286243945,1.3080701221,0,924,219,100,0,0,823,0,0,256,4.534894,0.2849022496, same,-2.4286243945,0.6089393165,-0.813354,770,750,221,600,2.9196246773,0,0,0,0,0,0
217,-1,3.436524,0,1589,0.5,4.0073352227,5915911, act,PP00,1.264927,5.865148, Counter,0,0,0,-8,-6,1.1524162237,3.926991,3.5999964015,50,750,0,601,1,8,6,6,5913333,2.919624,1.3583814001, ret,5913564,392,225,7.7495887625,5.7366339434,1.9448829849,0,937,220,100,1.570796,0,822,0,90,208,4.184551,0.1484036632, same,-0.1285130109,0.644063098,-2.428624,769,750,169,600,6.4846621085,0,0,0,0,0,0
226,-1,5.26254,0,2177,0.5,4.8485603871,5920065, mir,PP00,-5.98124,-0.474095, Counter,0,0,0,-8,-6,1.6468264067,3.926991,3.744461423,50,750,0,137,1,8,6,6,5916899,7.749588,-3.0624943636, spa,5917132,980,225,4.9960161473,2.5089680778,2.5460638069,0,924,221,100,4.712389,1,823,0,270,220,1.768348,0.2851038942, across_horiz,8.4902080933,0.614133506,5.736635,770,750,117,1200,4.5219199855,0,0,0,0,0,0
262,-1,3.9853,0,1325,0.5,3.9569101041,5922912, mir,PP00,-5.815535,1.476332, Counter,0,1,0,-8,-6,0.7467080162,3.926991,4.1454033209,50,750,0,306,1,8,6,6,5920598,4.996016,2.8929843158, ret,5920829,43,225,-4.4654511736,1.8156966755,1.7216994619,0,972,222,100,3.141593,1,871,0,180,257,-0.819519,0.6906826676, across_horiz,6.1549020615,0.2843087782,2.508968,819,750,222,300,2.8264139252,0,0,0,0,0,0
239,-1,2.317888,0,2177,0.5,4.2099046728,5926610, act,PP00,5.978947,0.50219, clockwise,0,0,0,-8,-6,0.1631157863,2.356194,3.6945139805,50,750,0,23,1,8,6,6,5923444,-4.465452,0.0837963639, spa,5923676,1008,135,-1.7270720665,5.0562680115,0.9305130498,0,924,223,100,0,0,823,0,0,192,1.513495,0.0346956987, same,5.0562680115,0.7327015648,1.815698,770,750,157,1200,-1.7270720665,0,0,0,0,0,0
256,-1,3.60169,0,1276,0.5,4.2078099711,5929406, act,PP00,5.821014,-1.454576, clockwise,0,0,0,-8,-6,0.2330714532,2.356194,4.2794253686,50,750,0,331,1,8,6,6,5927142,-1.727073,-0.2448691179, ret,5927373,94,135,7.7317372634,5.7849074298,0.6090301647,0,923,224,100,4.712389,0,822,0,270,206,4.093941,0.1022919111, same,7.2394863063,0.2736668003,5.056266,770,750,169,300,1.9107236416,0,0,0,0,0,0
181,-1,0.149854,0,1579,0.5,4.3370077374,5932772, mir,PP00,-2.060617,-5.635056, Counter,0,0,0,-8,-6,0.6755048279,3.926991,2.8733073038,50,750,0,327,1,8,6,6,5930204,7.731736,-1.9213694992, ret,5930435,462,225,7.4583405733,-3.6979816316,2.075953238,0,925,225,100,3.141593,0,824,0,180,138,5.671119,0.0304933484, same,3.9976902507,1.3699550617,5.78491,770,750,104,600,3.8838987597,0,0,0,0,0,0
168,-1,-0.19944,0,1881,0.5,3.7696582529,5936173, mir,PP00,-4.874444,3.498543, clockwise,0,0,0,-8,-6,0.163134351,2.356194,0.5230380195,50,750,0,539,1,8,6,6,5933304,7.458339,2.5190650803, spa,5933536,645,135,6.7703886299,0.4885070087,4.6262738352,0,928,226,100,1.570796,1,827,0,90,255,2.583895,3.8166670876, across_horiz,-4.3859334051,0.6464723966,-3.697983,769,750,220,900,3.2718433768,0,0,0,0,0,0
222,-1,1.676573,0,1578,0.5,4.8138080419,5939273, mir,PP00,-5.881199,1.188062, clockwise,0,0,0,-8,-6,1.9309663215,2.356194,1.7305148326,50,750,0,26,1,8,6,6,5936706,6.770388,2.9422649889, ret,5936937,-300,135,-1.4573792201,5.2112041814,6.2375205033,0,924,227,100,3.141593,1,823,0,180,900,0.889189,2.6580311755, across_horiz,-1.8580589942,1.6485230062,0.488511,771,750,11,600,3.2357559957,0,0,0,0,0,0
158,-1,-0.78829,0,1577,0.5,5.3792259296,5942371, act,PP00,0.077945,-5.999494, Counter,0,0,0,-8,-6,0.2357787441,3.926991,3.6823069714,50,750,0,125,1,8,6,6,5939805,-1.45738,-1.5578051287, spa,5940037,455,225,-4.4181548866,2.1724837926,1.7811566112,0,924,228,100,0,0,823,0,0,145,-1.379435,0.0435929354, same,2.1724837926,1.5017849316,5.211204,770,750,115,600,-4.4181548866,0,0,0,0,0,0
216,-1,-3.159262,0,2177,0.5,4.0973724431,5946085, act,PP00,2.751815,-5.331746, clockwise,0,0,0,-8,-6,0.9519972915,2.356194,3.5014611072,50,750,0,537,1,8,6,6,5942909,-4.418155,-1.0943368906, ret,5943151,990,135,2.3754398255,-4.4492293804,1.879911503,0,923,229,100,4.712389,0,822,0,270,210,-1.66634,0.1644217801, same,0.8825178002,0.7634924314,2.172484,770,750,177,1200,-0.3763725403,0,0,0,0,0,0
146,-1,-2.183388,0,2176,0.5,4.3423233468,5951245, act,PP00,-5.555715,2.265839, Counter,0,0,0,-8,-6,1.5786028706,3.926991,3.1698188291,50,750,0,335,1,8,6,6,5948081,2.37544,2.7543465675, spa,5948312,1044,225,0.7305019415,-0.5384491823,3.5744664354,0,923,230,100,0,0,822,0,0,156,-3.180275,0.6807746717, same,-0.5384491823,1.3150888931,-4.449227,770,750,124,1200,0.7305019415,0,0,0,0,0,0
188,-1,3.84503,0,1578,0.5,4.3848225255,5954344, act,PP00,4.096964,4.383479, clockwise,0,0,0,-8,-6,0.8369480791,2.356194,3.8456342581,50,750,0,471,1,8,6,6,5951778,0.730502,0.8191706987, spa,5952008,419,135,0.587244557,3.7017745828,1.6913816465,0,924,231,100,0,0,823,0,0,181,4.827466,0.1254043365, same,3.7017745828,0.7290292309,-0.538449,771,750,148,600,0.587244557,0,0,0,0,0,0
65,-1,3.926646,0,1276,0.5,4.2492300151,5957140, act,PP00,-5.995785,0.224874, clockwise,0,0,0,-8,-6,0.7977245568,2.356194,1.2357712639,50,750,0,203,1,8,6,6,5954876,0.587245,3.1041048769, ret,5955107,25,135,-8.5188705951,1.0411922074,4.9207619728,0,923,232,100,4.712389,0,822,0,270,275,-5.40854,3.010840467, same,0.8163153483,1.112196949,3.701772,770,750,13,300,-2.5230862684,0,0,0,0,0,0
199,-1,-1.640099,0,1877,0.5,3.5758358437,5960538, act,PP00,5.367558,-2.681289, Counter,0,0,0,-8,-6,2.0224753967,3.926991,4.1422691658,50,750,0,213,1,8,6,6,5957672,-8.518868,-0.4632764217, ret,5957904,560,225,-1.8081758844,-5.6645232753,3.0449075642,0,924,233,100,1.570796,0,823,0,90,340,-3.15131,0.2104385125, same,-2.9832344308,0.8119936551,1.04119,771,750,142,900,-7.1757338363,0,0,0,0,0,0
223,-1,0.335128,0,1882,0.5,4.0251688894,5963955, act,PP00,-0.064716,5.999651, Counter,0,0,0,-8,-6,0.5245428279,3.926991,0.8374635779,50,750,0,409,1,8,6,6,5961070,-1.808174,1.5815825359, ret,5961316,667,225,1.0945779243,3.3673110614,4.8994517513,0,929,234,100,1.570796,0,828,0,90,233,-1.87289,3.4057539869, same,-2.6323389334,0.9691549365,-5.664523,771,750,202,900,1.1592940312,0,0,0,0,0,0
269,-1,1.088695,0,2178,0.5,3.6463201705,5967655, act,PP00,-5.550487,-2.278617, Counter,0,0,0,-8,-6,0.552285063,3.926991,1.8414955591,50,750,0,546,1,8,6,6,5964489,1.094578,-2.752045545, ret,5964719,975,225,-8.3704606903,2.7246305317,3.7315919594,0,926,235,100,1.570796,1,822,0,90,225,-4.455909,2.4247058798, across_horiz,5.0032472249,0.7546010166,3.367312,770,750,193,1200,-2.8199747475,0,0,0,0,0,0
192,-1,4.417884,0,1276,0.5,4.1229242149,5971496, act,PP00,5.756117,1.693255, Counter,0,0,0,-8,-6,0.8155110247,3.926991,0.6984618307,50,750,0,418,1,8,6,6,5969232,-8.370461,0.2860961181, spa,5969463,74,225,-4.6457744478,0.6931973909,5.3723468858,0,923,236,100,0,0,822,0,0,226,-2.614344,3.6831706504, same,0.6931973909,0.8736652106,2.724629,770,750,201,300,-4.6457744478,0,0,0,0,0,0
176,-1,4.791212,0,2176,0.5,4.1052935248,5975192, mir,PP00,4.382497,4.098014, clockwise,0,0,0,-8,-6,1.9180363417,2.356194,4.0579997152,50,750,0,375,1,8,6,6,5972029,-4.645775,0.7518652357, spa,5972259,1010,135,-0.4055229668,0.5509565396,2.4758327298,0,923,237,100,1.570796,1,822,0,90,190,-0.263278,0.2013932852, across_horiz,4.9334555811,0.3564031029,0.693198,770,750,153,1200,-4.5035335069,0,0,0,0,0,0
56,-1,5.690908,0,1277,0.5,4.6703595776,5978314, mir,PP00,3.095304,5.139951, Counter,0,0,0,-8,-6,1.3517961325,3.926991,3.4293256913,50,750,0,623,1,8,6,6,5976049,-0.405519,1.0287571075, ret,5976280,114,225,1.6674593645,9.8085347795,2.4696255966,0,924,238,100,3.141593,0,823,0,180,186,2.689785,0.188584597, same,1.5732808664,0.9292448672,0.550957,770,750,151,300,3.7121092091,0,0,0,0,0,0
-1,-1,3.808983,0,0,0.5,0,5982715, act,PP00,0.073343,-5.999552, clockwise,0,1,0,-8,-6,-1,2.356194,0.7664106876,50,750,0,162,1,8,6,6,5979607,1.66746,-1.5585721896, ret,5980025,713,135,0,0,9.7444998274,0,1933,239,100,4.712389,-1,822,0,270,187,1.740803,6.4960446724, undef,6.8454289043,4.248455155,9.808535,770,750,156,900,4.7039088487,0,0,0,0,0,0
297,-1,3.516356,0,1577,0.5,4.5179394934,5985812, mir,PP00,-5.372947,2.670476, Counter,0,0,0,-8,-6,1.3511321001,3.926991,3.2897193458,50,750,0,209,1,8,6,6,5983247,4.777252,2.6803298133, ret,5983478,406,225,-4.6174056991,2.1651183996,2.6410710802,0,924,240,100,3.141593,0,823,0,180,194,-0.595695,0.2869319752, same,4.8675922073,1.0030070048,0.84588,770,750,156,600,3.4260161672,0,0,0,0,0,0
145,-1,3.4618,0,1577,0.5,4.6023461638,5989251, act,PP00,5.85821,1.29668, Counter,0,0,0,-8,-6,1.0875271852,3.926991,1.0533864213,50,750,0,186,1,8,6,6,5986686,-4.617406,0.2178319558, ret,5986917,571,225,4.8182485018,1.1810345942,4.9082482194,0,924,241,100,1.570796,0,823,0,90,29,1.240804,0.403514601, same,-0.1156452472,3.4172064331,2.16512,771,750,153,600,-1.0399602367,0,0,0,0,0,0
234,-1,2.453553,0,1881,0.5,3.854644165,5993711, act,PP00,-5.863506,1.272518, Counter,0,0,0,-8,-6,0.2077789477,3.926991,4.0951778887,50,750,0,6,1,8,6,6,5990827,4.818249,2.9278833003, ret,5991073,670,225,-3.340750338,6.0215650985,0.7700892019,0,928,242,100,1.570796,0,827,0,90,230,-1.045257,0.2840017117, same,4.749047504,0.2783085426,1.181035,770,750,191,900,2.5227543484,0,0,0,0,0,0
149,-1,0.028333,0,1576,0.5,4.4219971496,5996829, mir,PP00,0.284934,-5.993231, Counter,0,0,0,-8,-6,0.4562403835,3.926991,3.5049292052,50,750,0,18,1,8,6,6,5994243,-3.340752,-1.5232894625, ret,5994496,358,225,0.0832657842,-2.8258136318,1.6220735127,0,923,243,100,3.141593,1,822,0,180,242,-3.055818,0.1497675085, across_vert,2.8824807192,1.0160656207,6.021564,769,750,205,600,-6.1949007955,0,0,0,0,0,0
208,-1,-1.473589,0,1277,0.5,4.0977916884,5999626, mir,PP00,-5.845638,1.352225, Counter,0,0,0,-8,-6,2.2801455105,3.926991,3.1899029672,50,750,0,80,1,8,6,6,5997361,0.083265,2.9142689959, ret,5997592,129,225,-9.3613035066,-3.7202975278,3.4773413916,0,924,244,100,3.141593,1,823,0,180,171,-5.762373,0.1159111096, across_horiz,0.773118281,1.0812847715,-2.825814,770,750,136,300,-2.1634417151,0,0,0,0,0,0
145,-1,-0.508279,0,1876,0.5,4.4849122169,6003953, act,PP00,5.067834,3.212017, Counter,0,0,0,-8,-6,0.7481883922,3.926991,1.00832336,50,750,0,98,1,8,6,6,6001090,-9.361304,0.5649057443, spa,6001320,695,225,-5.2213778112,-4.6482049769,4.3220350186,0,923,245,100,0,0,822,0,0,205,-4.29347,3.23783631, same,-4.6482049769,0.3360103164,-3.720296,770,750,10,900,-5.2213778112,0,0,0,0,0,0
-1,-1,-4.139137,0,0,0.5,0,6007757, mir,PP00,5.978365,0.509068, Counter,0,1,0,-8,-6,-1,3.926991,4.544440996,50,750,0,270,1,8,6,6,6004846,-5.221378,0.0849467939, spa,6005079,676,225,0,0,8.8216040622,0,1921,246,100,4.712389,-1,868,0,270,224,0.756987,5.848470249, undef,-7.382854077,3.9731338132,-4.648205,816,750,194,900,-1.9776609709,0,0,0,0,0,0
171,-1,4.53394,0,1876,0.5,4.2955422927,6011152, mir,PP00,0.857357,5.938429, clockwise,0,0,0,-8,-6,0.9049455956,2.356194,4.0445575447,50,750,0,543,1,8,6,6,6008289,-2.48673,1.4274126975, ret,6008519,539,135,1.7685203647,7.074475511,1.4114819352,0,923,247,100,3.141593,1,822,0,180,361,-1.629373,0.1935227868, across_vert,1.9934056661,0.3130135528,-1.404489,770,750,317,900,-5.0272672447,0,0,0,0,0,0
232,-1,5.665709,0,2178,0.5,4.0207476728,6014851, act,PP00,5.83227,-1.408767, Counter,0,0,0,-8,-6,0.4322267188,3.926991,3.977488015,50,750,0,288,1,8,6,6,6011684,1.76852,-0.2370071601, ret,6011916,915,225,9.8125410466,2.045190072,1.1036911775,0,925,248,100,1.570796,0,824,0,90,285,7.60079,0.1983945941, same,3.4539567702,0.4730698646,7.074476,771,750,246,1200,3.9802717948,0,0,0,0,0,0
243,-1,4.830433,0,1876,0.5,4.5364538175,6018246, mir,PP00,-5.31436,2.785243, clockwise,0,0,0,-8,-6,0.4979394163,2.356194,3.0604108458,50,750,0,319,1,8,6,6,6015383,9.812541,2.6588533801, spa,6015613,716,135,8.5479834893,6.0949881777,1.747044299,0,923,249,100,1.570796,1,822,0,90,184,4.498181,0.0648923168, across_horiz,0.7806309239,1.1842125659,2.04519,770,750,150,900,5.7627375011,0,0,0,0,0,0
188,-1,0.169778,0,1583,0.5,4.35105342,6021364, act,PP00,-0.944373,-5.925214, Counter,0,0,0,-8,-6,0.7704546996,3.926991,3.4420940706,50,750,0,616,1,8,6,6,6018778,8.547983,-1.7288490461, ret,6019025,271,225,4.1688162044,-2.3206419609,2.2659109838,0,929,250,100,1.570796,0,828,0,90,329,7.60361,0.0936401268, same,3.6045709818,1.4018161573,6.094992,774,750,295,600,5.1131889167,0,0,0,0,0,0
227,-1,-1.314684,0,2177,0.5,3.2778524172,6025063, act,PP00,-5.915069,1.005959, Counter,0,0,0,-8,-6,1.154469878,3.926991,1.6428092714,50,750,0,591,1,8,6,6,6021899,4.168816,2.9731372213, spa,6022130,1054,225,1.7142608015,1.1398718111,4.1856388017,0,924,251,100,0,0,823,0,0,146,-1.746253,0.4014514607, same,1.1398718111,2.6297174629,-2.320643,771,750,115,1200,1.7142608015,0,0,0,0,0,0
111,-1,-3.347038,0,1277,0.5,4.156501411,6027866, mir,PP00,-3.983421,-4.48691, Counter,0,0,0,-8,-6,0.4059721688,3.926991,3.1379058444,50,750,0,519,1,8,6,6,6025602,1.714261,-2.2968228714, spa,6025832,141,225,1.9660052013,-3.0952926566,2.2871299376,0,923,252,100,4.712389,1,822,0,270,159,-2.26916,0.0852273577, across_vert,0.8881272062,1.7959304111,1.139872,769,750,124,300,-2.5209052604,0,0,0,0,0,0
235,-1,0.359649,0,1278,0.5,4.7841132845,6030674, act,PP00,4.905444,3.454941, Counter,0,0,0,-8,-6,0.6343896372,3.926991,4.3325671194,50,750,0,51,1,8,6,6,6028407,1.966005,0.6136110575, spa,6028639,104,225,6.1461982464,-3.8205437401,1.4964322201,0,925,253,100,0,0,824,0,0,196,6.871449,0.2804288685, same,-3.8205437401,0.5816137144,-3.095292,769,750,161,300,6.1461982464,0,0,0,0,0,0
-1,-1,-4.382897,0,0,0.5,0,6033814, mir,PP00,-5.973588,-0.562353, clockwise,0,1,0,-8,-6,-1,2.356194,3.8016979131,50,750,0,483,1,8,6,6,6031207,6.146198,-3.0477293796, spa,6031437,394,135,0,0,8.3097365063,0,1620,254,100,1.570796,-1,867,0,90,206,0.17261,5.5591184889, undef,-7.088516309,3.7506180174,-3.820544,815,750,177,600,3.4405794238,0,0,0,0,0,0
234,-1,2.454279,0,1877,0.5,3.7918044476,6038332, mir,PP00,-4.822942,3.569205, clockwise,0,0,0,-8,-6,0.4398530479,2.356194,4.0265893075,50,750,0,207,1,8,6,6,6035468,2.878227,2.504491789, ret,6035699,698,135,-2.5715829501,6.6503529475,1.0032603083,0,924,255,100,3.141593,1,823,0,180,202,-1.944715,0.2229847786, across_horiz,-1.7417951647,0.3404224817,-1.114926,770,750,165,900,-1.3178485035,0,0,0,0,0,0
