h_across, PRACTICE, a_freq, v_across, a_loc, cond, FILE, RT, saccade_latency, min_x, min_y, t_loc, j_size, j_angle, p4_dur, fix_lost, a_tilt, seq_trial_id, p1_dur, correct, max_x, t_freq, p3_dur, TRIAL_START, t_width, a_width, t_tilt, a_angle, TRIALID, response, OUTLIER, spatio, t_angle, congruent, TRIAL_END, max_y, p2_dur
0, 0, 0.5, 0, 0, 0, SS03.asc, 681, 0, -9.6, -9.6, 0, 6.0, 10.019885, 50, 0, -0.523599, 0, 500, 1, -9.6, 0.5, 500, 5778255, 4.0, 4.0, -0.10472, 12.37608, 0, 47, 0, 1, 12.37608, 1, 5783210, -9.6, 3000
1, 0, 0.5, 0, 1, 0, SS03.asc, 610, 0, -9.6, -9.6, 0, 6.0, 6.807056, 50, 0, -0.523599, 189, 500, 1, -9.6, 0.5, 500, 5784250, 4.0, 4.0, -0.10472, 10.734047, 1, 47, 0, 0, 9.16325, 1, 5789133, -9.6, 3000
1, 0, 0.5, 0, 1, 0, SS03.asc, 761, 0, -9.6, -9.6, 0, 6.0, 12.162538, 50, 0, 0.523599, 249, 500, 1, -9.6, 0.5, 500, 5790601, 4.0, 4.0, 0.069813, 16.089529, 2, 122, 0, 0, 14.518732, 1, 5795633, -9.6, 3000
1, 0, 0.5, 0, 1, 0, SS03.asc, 922, 0, -9.6, -9.6, 0, 6.0, 12.303093, 50, 0, 0.523599, 302, 500, 1, -9.6, 0.5, 500, 5796672, 4.0, 4.0, 0.034907, 16.230083, 3, 122, 0, 0, 14.659287, 1, 5801865, -9.6, 3000
0, 0, 0.5, 0, 1, 0, SS03.asc, 651, 0, -9.6, -9.6, 1, 6.0, 9.26706, 50, 0, 0.523599, 356, 500, 1, -9.6, 0.5, 500, 5802904, 4.0, 4.0, -0.10472, 13.194052, 4, 47, 0, 1, 13.194052, 0, 5807827, -9.6, 3000
1, 0, 0.5, 0, 1, 0, SS03.asc, 672, 0, -9.6, -9.6, 0, 6.0, 9.923241, 50, 0, -0.261799, 104, 500, 1, -9.6, 0.5, 500, 5809267, 4.0, 4.0, -0.10472, 13.850232, 5, 47, 0, 0, 12.279435, 1, 5814211, -9.6, 3000
0, 0, 0.5, 0, 0, 0, SS03.asc, 822, 0, -9.6, -9.6, 0, 6.0, 12.310763, 50, 0, 0.523599, 336, 500, 0, -9.6, 0.5, 500, 5815251, 4.0, 4.0, 0.069813, 14.666958, 6, 47, 0, 1, 14.666958, 1, 5820345, -9.6, 3000
1, 0, 0.5, 0, 0, 0, SS03.asc, 763, 0, -9.6, -9.6, 1, 6.0, 6.998042, 50, 0, -0.261799, 95, 500, 1, -9.6, 0.5, 500, 5821386, 4.0, 4.0, 0.069813, 9.354237, 7, 122, 0, 0, 10.925033, 0, 5826423, -9.6, 3000
1, 0, 0.5, 0, 1, 0, SS03.asc, 687, 0, -9.6, -9.6, 0, 6.0, 6.328823, 50, 0, -0.523599, 12, 500, 0, -9.6, 0.5, 500, 5827463, 4.0, 4.0, 0.034907, 10.255814, 8, 47, 0, 0, 8.685018, 0, 5832436, -9.6, 3000
0, 0, 0.5, 0, 1, 0, SS03.asc, 638, 0, -9.6, -9.6, 1, 6.0, 9.548171, 50, 0, -0.261799, 94, 500, 1, -9.6, 0.5, 500, 5833474, 4.0, 4.0, 0.069813, 13.475163, 9, 122, 0, 1, 13.475163, 0, 5838385, -9.6, 3000
1, 0, 0.5, 0, 1, 0, SS03.asc, 765, 0, -9.6, -9.6, 0, 6.0, 9.624105, 50, 0, -0.523599, 209, 500, 1, -9.6, 0.5, 500, 5839424, 4.0, 4.0, -0.034907, 13.551097, 10, 47, 0, 0, 11.9803, 1, 5844462, -9.6, 3000
0, 0, 0.5, 0, 1, 0, SS03.asc, 564, 0, -9.6, -9.6, 1, 6.0, 11.700603, 50, 0, -0.261799, 352, 500, 1, -9.6, 0.5, 500, 5845510, 4.0, 4.0, 0.034907, 15.627595, 11, 122, 0, 1, 15.627595, 0, 5850346, -9.6, 3000
0, 0, 0.5, 0, 0, 0, SS03.asc, 687, 0, -9.6, -9.6, 0, 6.0, 6.511564, 50, 0, 0.261799, 205, 500, 1, -9.6, 0.5, 500, 5851387, 4.0, 4.0, 0.10472, 8.867758, 12, 122, 0, 1, 8.867758, 1, 5856346, -9.6, 3000
0, 0, 0.5, 0, 1, 0, SS03.asc, 626, 0, -9.6, -9.6, 1, 6.0, 9.091798, 50, 0, 0.523599, 97, 500, 1, -9.6, 0.5, 500, 5857409, 4.0, 4.0, -0.069813, 13.018789, 13, 47, 0, 1, 13.018789, 0, 5862309, -9.6, 3000
1, 0, 0.5, 0, 1, 0, SS03.asc, 638, 0, -9.6, -9.6, 0, 6.0, 8.990935, 50, 0, -0.261799, 41, 500, 1, -9.6, 0.5, 500, 5863360, 4.0, 4.0, 0.034907, 12.917927, 14, 122, 0, 0, 11.347131, 0, 5868270, -9.6, 3000
0, 0, 0.5, 0, 0, 0, SS03.asc, 495, 0, -9.6, -9.6, 0, 6.0, 6.541094, 50, 0, -0.523599, 354, 500, 1, -9.6, 0.5, 500, 5869316, 4.0, 4.0, 0.10472, 8.897288, 15, 122, 0, 1, 8.897288, 0, 5874082, -9.6, 3000
1, 0, 0.5, 0, 0, 0, SS03.asc, 613, 0, -9.6, -9.6, 1, 6.0, 6.82508, 50, 0, 0.523599, 74, 500, 1, -9.6, 0.5, 500, 5875120, 4.0, 4.0, -0.069813, 9.181275, 16, 47, 0, 0, 10.752071, 0, 5880004, -9.6, 3000
0, 0, 0.5, 1, 0, 0, SS03.asc, 692, 0, -9.6, -9.6, 1, 6.0, 10.214323, 50, 0, -0.261799, 377, 500, 1, -9.6, 0.5, 500, 5881042, 4.0, 4.0, 0.034907, 12.570518, 17, 122, 0, 0, 14.141314, 0, 5886004, -9.6, 3000
1, 0, 0.5, 0, 0, 0, SS03.asc, 1036, 0, -9.6, -9.6, 1, 6.0, 9.369649, 50, 0, 0.523599, 327, 500, 1, -9.6, 0.5, 500, 5887043, 4.0, 4.0, -0.034907, 11.725843, 18, 47, 0, 0, 13.296639, 0, 5892350, -9.6, 3000
1, 0, 0.5, 0, 0, 0, SS03.asc, 727, 0, -9.6, -9.6, 1, 6.0, 11.998013, 50, 0, -0.523599, 208, 500, 0, -9.6, 0.5, 500, 5893389, 4.0, 4.0, -0.034907, 14.354208, 19, 122, 0, 0, 15.925004, 1, 5898389, -9.6, 3000
0, 0, 0.5, 0, 0, 0, SS03.asc, 998, 0, -9.6, -9.6, 0, 6.0, 9.215862, 50, 0, 0.261799, 112, 500, 1, -9.6, 0.5, 500, 5899427, 4.0, 4.0, 0.069813, 11.572057, 20, 122, 0, 1, 11.572057, 1, 5904697, -9.6, 3000
0, 0, 0.5, 0, 0, 0, SS03.asc, 923, 0, -9.6, -9.6, 0, 6.0, 7.095837, 50, 0, 0.261799, 125, 500, 1, -9.6, 0.5, 500, 5905735, 4.0, 4.0, 0.10472, 9.452031, 21, 122, 0, 1, 9.452031, 1, 5910928, -9.6, 3000
0, 0, 0.5, 0, 0, 0, SS03.asc, 577, 0, -9.6, -9.6, 0, 6.0, 7.051158, 50, 0, 0.261799, 372, 500, 1, -9.6, 0.5, 500, 5911965, 4.0, 4.0, -0.069813, 9.407352, 22, 47, 0, 1, 9.407352, 0, 5916813, -9.6, 3000
1, 0, 0.5, 0, 0, 0, SS03.asc, 730, 0, -9.6, -9.6, 1, 6.0, 8.806469, 50, 0, -0.523599, 284, 500, 0, -9.6, 0.5, 500, 5917851, 4.0, 4.0, 0.034907, 11.162663, 23, 47, 0, 0, 12.733459, 0, 5922851, -9.6, 3000
0, 0, 0.5, 0, 0, 0, SS03.asc, 649, 0, -9.6, -9.6, 0, 6.0, 9.84328, 50, 0, -0.261799, 343, 500, 1, -9.6, 0.5, 500, 5923891, 4.0, 4.0, 0.10472, 12.199474, 24, 122, 0, 1, 12.199474, 0, 5928813, -9.6, 3000
0, 0, 0.5, 0, 1, 0, SS03.asc, 538, 0, -9.6, -9.6, 1, 6.0, 6.52652, 50, 0, 0.523599, 53, 500, 1, -9.6, 0.5, 500, 5929851, 4.0, 4.0, -0.10472, 10.453511, 25, 47, 0, 1, 10.453511, 0, 5934660, -9.6, 3000
0, 0, 0.5, 0, 1, 0, SS03.asc, 525, 0, -9.6, -9.6, 1, 6.0, 11.944514, 50, 0, 0.261799, 86, 500, 1, -9.6, 0.5, 500, 5935698, 4.0, 4.0, 0.069813, 15.871505, 26, 122, 0, 1, 15.871505, 1, 5940507, -9.6, 3000
0, 0, 0.5, 0, 1, 0, SS03.asc, 835, 0, -9.6, -9.6, 1, 6.0, 8.676652, 50, 0, -0.523599, 120, 500, 1, -9.6, 0.5, 500, 5941545, 4.0, 4.0, 0.034907, 12.603642, 27, 122, 0, 1, 12.603642, 0, 5946661, -9.6, 3000
0, 0, 0.5, 0, 1, 0, SS03.asc, 1000, 0, -9.6, -9.6, 1, 6.0, 6.966019, 50, 1, -0.523599, 181, 500, 1, -9.6, 0.5, 500, 5948006, 4.0, 4.0, 0.034907, 10.89301, 28, 122, 0, 1, 10.89301, 0, 5953277, -9.6, 3000
0, 0, 0.5, 0, 1, 0, SS03.asc, 459, 0, -9.6, -9.6, 1, 6.0, 9.132833, 50, 0, 0.523599, 307, 500, 1, -9.6, 0.5, 500, 5954315, 4.0, 4.0, 0.10472, 13.059824, 29, 122, 0, 1, 13.059824, 1, 5959045, -9.6, 3000
0, 0, 0.5, 0, 1, 0, SS03.asc, 660, 0, -9.6, -9.6, 1, 6.0, 9.860154, 50, 0, -0.523599, 111, 500, 0, -9.6, 0.5, 500, 5960501, 4.0, 4.0, -0.069813, 13.787145, 30, 122, 0, 1, 13.787145, 1, 5965431, -9.6, 3000
0, 0, 0.5, 0, 1, 0, SS03.asc, 458, 0, -9.6, -9.6, 1, 6.0, 7.01089, 50, 0, -0.261799, 5, 500, 1, -9.6, 0.5, 500, 5966469, 4.0, 4.0, -0.10472, 10.937881, 31, 47, 0, 1, 10.937881, 1, 5971200, -9.6, 3000
0, 0, 0.5, 0, 0, 0, SS03.asc, 653, 0, -9.6, -9.6, 0, 6.0, 8.596307, 50, 0, 0.523599, 217, 500, 1, -9.6, 0.5, 500, 5972238, 4.0, 4.0, 0.034907, 10.952501, 32, 122, 0, 1, 10.952501, 1, 5977162, -9.6, 3000
1, 0, 0.5, 0, 0, 0, SS03.asc, 883, 0, -9.6, -9.6, 1, 6.0, 6.42585, 50, 1, 0.261799, 96, 500, 0, -9.6, 0.5, 500, 5978200, 4.0, 4.0, 0.10472, 8.782044, 33, 47, 0, 0, 10.35284, 1, 5983356, -9.6, 3000
0, 0, 0.5, 0, 0, 0, SS03.asc, 679, 0, -9.6, -9.6, 0, 6.0, 9.772331, 50, 0, 0.523599, 138, 500, 0, -9.6, 0.5, 500, 5984829, 4.0, 4.0, -0.10472, 12.128526, 34, 122, 0, 1, 12.128526, 0, 5989786, -9.6, 3000
1, 0, 0.5, 0, 1, 0, SS03.asc, 647, 0, -9.6, -9.6, 0, 6.0, 10.201475, 50, 0, 0.261799, 169, 500, 1, -9.6, 0.5, 500, 5991052, 4.0, 4.0, -0.034907, 14.128467, 35, 47, 0, 0, 12.55767, 0, 5995972, -9.6, 3000
0, 0, 0.5, 0, 1, 0, SS03.asc, 613, 0, -9.6, -9.6, 1, 6.0, 6.692004, 50, 0, 0.523599, 296, 500, 1, -9.6, 0.5, 500, 5997010, 4.0, 4.0, -0.034907, 10.618995, 36, 47, 0, 1, 10.618995, 0, 6001894, -9.6, 3000
1, 0, 0.5, 0, 0, 0, SS03.asc, 688, 0, -9.6, -9.6, 1, 6.0, 11.887947, 50, 0, -0.523599, 214, 500, 0, -9.6, 0.5, 500, 6002935, 4.0, 4.0, 0.034907, 14.244142, 37, 47, 0, 0, 15.814938, 0, 6007894, -9.6, 3000
0, 0, 0.5, 0, 0, 0, SS03.asc, 579, 0, -9.6, -9.6, 0, 6.0, 9.236764, 50, 0, -0.523599, 230, 500, 0, -9.6, 0.5, 500, 6008931, 4.0, 4.0, -0.034907, 11.592958, 38, 122, 0, 1, 11.592958, 1, 6013780, -9.6, 3000
0, 0, 0.5, 0, 0, 0, SS03.asc, 654, 0, -9.6, -9.6, 0, 6.0, 12.35525, 50, 0, 0.523599, 141, 500, 1, -9.6, 0.5, 500, 6014818, 4.0, 4.0, -0.10472, 14.711445, 39, 47, 0, 1, 14.711445, 0, 6019742, -9.6, 3000
0, 0, 0.5, 0, 0, 0, SS03.asc, 472, 0, -9.6, -9.6, 0, 6.0, 11.904821, 50, 0, -0.261799, 371, 500, 1, -9.6, 0.5, 500, 6020785, 4.0, 4.0, 0.069813, 14.261016, 40, 122, 0, 1, 14.261016, 0, 6025528, -9.6, 3000
0, 0, 0.5, 0, 1, 0, SS03.asc, 836, 0, -9.6, -9.6, 1, 6.0, 10.120555, 50, 0, 0.523599, 219, 500, 1, -9.6, 0.5, 500, 6026566, 4.0, 4.0, 0.034907, 14.047546, 41, 122, 0, 1, 14.047546, 1, 6031683, -9.6, 3000
0, 0, 0.5, 0, 1, 0, SS03.asc, 1461, 0, -9.6, -9.6, 1, 6.0, 8.629289, 50, 0, -0.523599, 207, 500, 1, -9.6, 0.5, 500, 6032759, 4.0, 4.0, -0.069813, 12.55628, 42, 47, 0, 1, 12.55628, 1, 6038490, -9.6, 3000
0, 0, 0.5, 0, 0, 0, SS03.asc, 998, 0, -9.6, -9.6, 0, 6.0, 12.408558, 50, 0, -0.523599, 306, 500, 1, -9.6, 0.5, 500, 6039528, 4.0, 4.0, -0.10472, 14.764752, 43, 47, 0, 1, 14.764752, 1, 6044798, -9.6, 3000
0, 0, 0.5, 0, 0, 0, SS03.asc, 885, 0, -9.6, -9.6, 0, 6.0, 8.817591, 50, 0, 0.523599, 101, 500, 1, -9.6, 0.5, 500, 6045837, 4.0, 4.0, 0.10472, 11.173785, 44, 122, 0, 1, 11.173785, 1, 6050992, -9.6, 3000
0, 0, 0.5, 0, 1, 0, SS03.asc, 656, 0, -9.6, -9.6, 1, 6.0, 9.436571, 50, 0, 0.261799, 28, 500, 0, -9.6, 0.5, 500, 6052029, 4.0, 4.0, -0.034907, 13.363562, 45, 122, 0, 1, 13.363562, 0, 6056956, -9.6, 3000
0, 0, 0.5, 0, 0, 0, SS03.asc, 1026, 0, -9.6, -9.6, 0, 6.0, 12.197054, 50, 1, 0.523599, 35, 500, 0, -9.6, 0.5, 500, 6057999, 4.0, 4.0, 0.034907, 14.553248, 46, 47, 0, 1, 14.553248, 1, 6063302, -9.6, 3000
0, 0, 0.5, 1, 1, 0, SS03.asc, 842, 0, -9.6, -9.6, 0, 6.0, 7.077428, 50, 0, 0.261799, 185, 500, 1, -9.6, 0.5, 500, 6064339, 4.0, 4.0, 0.10472, 11.004419, 47, 122, 0, 0, 9.433622, 1, 6069458, -9.6, 3000
0, 0, 0.5, 0, 0, 0, SS03.asc, 690, 0, -9.6, -9.6, 0, 6.0, 11.827544, 50, 0, -0.523599, 92, 500, 1, -9.6, 0.5, 500, 6070495, 4.0, 4.0, -0.069813, 14.183739, 48, 47, 0, 1, 14.183739, 1, 6075457, -9.6, 3000
1, 0, 0.5, 0, 1, 0, SS03.asc, 964, 0, -9.6, -9.6, 0, 6.0, 10.120172, 50, 0, 0.523599, 257, 500, 1, -9.6, 0.5, 500, 6076608, 4.0, 4.0, 0.034907, 14.047163, 49, 122, 0, 0, 12.476366, 1, 6081843, -9.6, 3000
0, 0, 0.5, 0, 0, 0, SS03.asc, 716, 0, -9.6, -9.6, 0, 6.0, 10.141457, 50, 0, -0.523599, 225, 500, 0, -9.6, 0.5, 500, 6083165, 4.0, 4.0, -0.069813, 12.497651, 50, 122, 0, 1, 12.497651, 1, 6088150, -9.6, 3000
0, 0, 0.5, 0, 1, 0, SS03.asc, 989, 0, -9.6, -9.6, 1, 6.0, 9.178854, 50, 0, 0.523599, 247, 500, 1, -9.6, 0.5, 500, 6089390, 4.0, 4.0, -0.069813, 13.105845, 51, 47, 0, 1, 13.105845, 0, 6094652, -9.6, 3000
1, 0, 0.5, 0, 1, 0, SS03.asc, 832, 0, -9.6, -9.6, 0, 6.0, 9.961017, 50, 0, 0.523599, 206, 500, 1, -9.6, 0.5, 500, 6095705, 4.0, 4.0, -0.069813, 13.888007, 52, 47, 0, 0, 12.317211, 0, 6100806, -9.6, 3000
0, 0, 0.5, 0, 1, 0, SS03.asc, 731, 0, -9.6, -9.6, 1, 6.0, 6.344355, 50, 0, -0.523599, 223, 500, 1, -9.6, 0.5, 500, 6101844, 4.0, 4.0, -0.034907, 10.271345, 53, 47, 0, 1, 10.271345, 1, 6106847, -9.6, 3000
0, 0, 0.5, 0, 0, 0, SS03.asc, 656, 0, -9.6, -9.6, 0, 6.0, 9.207808, 50, 1, -0.261799, 316, 500, 0, -9.6, 0.5, 500, 6107882, 4.0, 4.0, -0.034907, 11.564004, 54, 122, 0, 1, 11.564004, 1, 6112808, -9.6, 3000
1, 0, 0.5, 0, 0, 0, SS03.asc, 685, 0, -9.6, -9.6, 1, 6.0, 6.557776, 50, 0, 0.523599, 337, 500, 1, -9.6, 0.5, 500, 6114408, 4.0, 4.0, -0.10472, 8.913971, 55, 47, 0, 0, 10.484767, 0, 6119365, -9.6, 3000
1, 0, 0.5, 0, 0, 0, SS03.asc, 689, 0, -9.6, -9.6, 1, 6.0, 9.901573, 50, 0, -0.261799, 82, 500, 1, -9.6, 0.5, 500, 6120442, 4.0, 4.0, -0.069813, 12.257768, 56, 47, 0, 0, 13.828564, 1, 6125403, -9.6, 3000
0, 0, 0.5, 0, 0, 0, SS03.asc, 1496, 0, -9.6, -9.6, 0, 6.0, 8.604552, 50, 0, 0.261799, 158, 500, 1, -9.6, 0.5, 500, 6126441, 4.0, 4.0, -0.069813, 10.960747, 57, 47, 0, 1, 10.960747, 0, 6132211, -9.6, 3000
0, 0, 0.5, 0, 1, 0, SS03.asc, 961, 0, -9.6, -9.6, 1, 6.0, 6.685867, 50, 0, 0.261799, 3, 500, 1, -9.6, 0.5, 500, 6133249, 4.0, 4.0, 0.069813, 10.612859, 58, 122, 0, 1, 10.612859, 1, 6138482, -9.6, 3000
1, 0, 0.5, 0, 1, 0, SS03.asc, 157, 0, -9.6, -9.6, 0, 6.0, 6.991139, 50, 0, -0.523599, 143, 500, 1, -9.6, 0.5, 500, 6139519, 4.0, 4.0, -0.034907, 10.91813, 59, 47, 0, 0, 9.347334, 1, 6143945, -9.6, 3000
1, 0, 0.5, 0, 1, 0, SS03.asc, 653, 0, -9.6, -9.6, 0, 6.0, 8.924014, 50, 0, 0.261799, 134, 500, 0, -9.6, 0.5, 500, 6144983, 4.0, 4.0, -0.034907, 12.851005, 60, 122, 0, 0, 11.280209, 0, 6149908, -9.6, 3000
0, 0, 0.5, 0, 1, 0, SS03.asc, 616, 0, -9.6, -9.6, 1, 6.0, 9.15546, 50, 0, 0.261799, 240, 500, 1, -9.6, 0.5, 500, 6150945, 4.0, 4.0, -0.034907, 13.082451, 61, 47, 0, 1, 13.082451, 0, 6155831, -9.6, 3000
0, 0, 0.5, 0, 0, 0, SS03.asc, 923, 0, -9.6, -9.6, 0, 6.0, 8.747409, 50, 0, -0.523599, 242, 500, 0, -9.6, 0.5, 500, 6156871, 4.0, 4.0, -0.069813, 11.103603, 62, 122, 0, 1, 11.103603, 1, 6162064, -9.6, 3000
1, 0, 0.5, 0, 0, 0, SS03.asc, 537, 0, -9.6, -9.6, 1, 6.0, 9.393426, 50, 0, -0.523599, 32, 500, 1, -9.6, 0.5, 500, 6163102, 4.0, 4.0, -0.034907, 11.74962, 63, 47, 0, 0, 13.320417, 1, 6167910, -9.6, 3000
0, 0, 0.5, 1, 1, 0, SS03.asc, 797, 0, -9.6, -9.6, 0, 6.0, 10.235032, 50, 0, 0.261799, 367, 500, 0, -9.6, 0.5, 500, 6200382, 4.0, 4.0, 0.034907, 14.162024, 64, 47, 0, 0, 12.591227, 1, 6205451, -9.6, 3000
1, 0, 0.5, 0, 0, 0, SS03.asc, 578, 0, -9.6, -9.6, 1, 6.0, 8.739547, 50, 0, 0.523599, 149, 500, 1, -9.6, 0.5, 500, 6206759, 4.0, 4.0, 0.10472, 11.095741, 65, 122, 0, 0, 12.666538, 1, 6211607, -9.6, 3000
0, 0, 0.5, 0, 0, 0, SS03.asc, 688, 0, -9.6, -9.6, 0, 6.0, 12.159086, 50, 0, 0.523599, 178, 500, 0, -9.6, 0.5, 500, 6212648, 4.0, 4.0, 0.10472, 14.515281, 66, 47, 0, 1, 14.515281, 1, 6217655, -9.6, 3000
1, 0, 0.5, 0, 0, 0, SS03.asc, 487, 0, -9.6, -9.6, 1, 6.0, 11.795138, 50, 1, -0.523599, 13, 500, 1, -9.6, 0.5, 500, 6218696, 4.0, 4.0, 0.069813, 14.151333, 67, 122, 0, 0, 15.722129, 0, 6223456, -9.6, 3000
1, 0, 0.5, 0, 1, 0, SS03.asc, 495, 0, -9.6, -9.6, 0, 6.0, 9.632543, 50, 0, -0.261799, 211, 500, 1, -9.6, 0.5, 500, 6224494, 4.0, 4.0, 0.10472, 13.559534, 68, 122, 0, 0, 11.988737, 0, 6229264, -9.6, 3000
0, 0, 0.5, 0, 1, 0, SS03.asc, 608, 0, -9.6, -9.6, 1, 6.0, 7.088358, 50, 0, -0.261799, 71, 500, 0, -9.6, 0.5, 500, 6230307, 4.0, 4.0, -0.069813, 11.015349, 69, 122, 0, 1, 11.015349, 1, 6235187, -9.6, 3000
0, 0, 0.5, 0, 1, 0, SS03.asc, 459, 0, -9.6, -9.6, 1, 6.0, 9.835418, 50, 0, 0.261799, 51, 500, 1, -9.6, 0.5, 500, 6236226, 4.0, 4.0, 0.10472, 13.762409, 70, 122, 0, 1, 13.762409, 1, 6240956, -9.6, 3000
0, 0, 0.5, 0, 1, 0, SS03.asc, 344, 0, -9.6, -9.6, 1, 6.0, 9.867825, 50, 0, -0.523599, 348, 500, 0, -9.6, 0.5, 500, 6241996, 4.0, 4.0, -0.034907, 13.794815, 71, 122, 0, 1, 13.794815, 1, 6246612, -9.6, 3000
1, 0, 0.5, 0, 0, 0, SS03.asc, 689, 0, -9.6, -9.6, 1, 6.0, 6.819903, 50, 0, -0.523599, 374, 500, 1, -9.6, 0.5, 500, 6247652, 4.0, 4.0, -0.10472, 9.176098, 72, 47, 0, 0, 10.746894, 1, 6252611, -9.6, 3000
0, 0, 0.5, 0, 1, 0, SS03.asc, 458, 0, -9.6, -9.6, 1, 6.0, 9.972522, 50, 0, -0.523599, 23, 500, 1, -9.6, 0.5, 500, 6253652, 4.0, 4.0, 0.10472, 13.899512, 73, 122, 0, 1, 13.899512, 0, 6258382, -9.6, 3000
1, 0, 0.5, 0, 1, 0, SS03.asc, 574, 0, -9.6, -9.6, 0, 6.0, 9.743568, 50, 0, 0.261799, 333, 500, 1, -9.6, 0.5, 500, 6259420, 4.0, 4.0, 0.034907, 13.670559, 74, 122, 0, 0, 12.099763, 1, 6264267, -9.6, 3000
0, 0, 0.5, 0, 0, 0, SS03.asc, 610, 0, -9.6, -9.6, 0, 6.0, 9.814325, 50, 0, -0.261799, 182, 500, 1, -9.6, 0.5, 500, 6265308, 4.0, 4.0, 0.034907, 12.17052, 75, 122, 0, 1, 12.17052, 0, 6270190, -9.6, 3000
1, 0, 0.5, 0, 1, 0, SS03.asc, 576, 0, -9.6, -9.6, 0, 6.0, 12.289287, 50, 0, -0.523599, 224, 500, 1, -9.6, 0.5, 500, 6271228, 4.0, 4.0, 0.069813, 16.216278, 76, 122, 0, 0, 14.645481, 0, 6276076, -9.6, 3000
1, 0, 0.5, 0, 1, 0, SS03.asc, 691, 0, -9.6, -9.6, 0, 6.0, 9.470895, 50, 0, 0.261799, 20, 500, 1, -9.6, 0.5, 500, 6277114, 4.0, 4.0, -0.069813, 13.397885, 77, 47, 0, 0, 11.827089, 0, 6282076, -9.6, 3000
1, 0, 0.5, 0, 0, 0, SS03.asc, 576, 0, -9.6, -9.6, 1, 6.0, 12.545469, 50, 0, 0.261799, 122, 500, 1, -9.6, 0.5, 500, 6283114, 4.0, 4.0, 0.034907, 14.901664, 78, 122, 0, 0, 16.47246, 1, 6287964, -9.6, 3000
1, 0, 0.5, 0, 1, 0, SS03.asc, 532, 0, -9.6, -9.6, 0, 6.0, 9.903682, 50, 0, 0.261799, 123, 500, 1, -9.6, 0.5, 500, 6289003, 4.0, 4.0, -0.069813, 13.830673, 79, 47, 0, 0, 12.259877, 0, 6293807, -9.6, 3000
0, 0, 0.5, 0, 1, 0, SS03.asc, 489, 0, -9.6, -9.6, 1, 6.0, 11.976728, 50, 0, -0.261799, 335, 500, 1, -9.6, 0.5, 500, 6294850, 4.0, 4.0, 0.10472, 15.90372, 80, 122, 0, 1, 15.90372, 0, 6299616, -9.6, 3000
1, 0, 0.5, 0, 1, 0, SS03.asc, 651, 0, -9.6, -9.6, 0, 6.0, 6.834668, 50, 0, 0.523599, 293, 500, 1, -9.6, 0.5, 500, 6300654, 4.0, 4.0, 0.10472, 10.76166, 81, 122, 0, 0, 9.190863, 1, 6305590, -9.6, 3000
1, 0, 0.5, 0, 0, 0, SS03.asc, 560, 0, -9.6, -9.6, 1, 6.0, 12.097533, 50, 0, -0.261799, 361, 500, 1, -9.6, 0.5, 500, 6306631, 4.0, 4.0, -0.069813, 14.453728, 82, 47, 0, 0, 16.024525, 1, 6311462, -9.6, 3000
0, 0, 0.5, 0, 0, 0, SS03.asc, 421, 0, -9.6, -9.6, 0, 6.0, 12.459373, 50, 0, -0.523599, 222, 500, 1, -9.6, 0.5, 500, 6312501, 4.0, 4.0, 0.034907, 14.815567, 83, 122, 0, 1, 14.815567, 0, 6317194, -9.6, 3000
0, 0, 0.5, 0, 1, 0, SS03.asc, 535, 0, -9.6, -9.6, 1, 6.0, 6.904083, 50, 0, 0.261799, 59, 500, 1, -9.6, 0.5, 500, 6318234, 4.0, 4.0, -0.10472, 10.831074, 84, 47, 0, 1, 10.831074, 0, 6323040, -9.6, 3000
0, 0, 0.5, 0, 0, 0, SS03.asc, 692, 0, -9.6, -9.6, 0, 6.0, 8.713085, 50, 0, -0.261799, 212, 500, 1, -9.6, 0.5, 500, 6324078, 4.0, 4.0, -0.10472, 11.06928, 85, 47, 0, 1, 11.06928, 1, 6329041, -9.6, 3000
0, 0, 0.5, 0, 0, 0, SS03.asc, 730, 0, -9.6, -9.6, 0, 6.0, 10.128609, 50, 0, 0.523599, 194, 500, 1, -9.6, 0.5, 500, 6330079, 4.0, 4.0, -0.034907, 12.484803, 86, 47, 0, 1, 12.484803, 0, 6335079, -9.6, 3000
0, 0, 0.5, 0, 0, 0, SS03.asc, 614, 0, -9.6, -9.6, 0, 6.0, 6.994015, 50, 0, 0.523599, 380, 500, 1, -9.6, 0.5, 500, 6336118, 4.0, 4.0, -0.069813, 9.35021, 87, 47, 0, 1, 9.35021, 0, 6341003, -9.6, 3000
1, 0, 0.5, 0, 1, 0, SS03.asc, 541, 0, -9.6, -9.6, 0, 6.0, 9.704259, 50, 0, -0.523599, 154, 500, 1, -9.6, 0.5, 500, 6342040, 4.0, 4.0, -0.069813, 13.631249, 88, 47, 0, 0, 12.060453, 1, 6346850, -9.6, 3000
0, 0, 0.5, 0, 0, 0, SS03.asc, 469, 0, -9.6, -9.6, 0, 6.0, 8.79995, 50, 0, 0.261799, 8, 500, 1, -9.6, 0.5, 500, 6348685, 4.0, 4.0, -0.034907, 11.156144, 89, 47, 0, 1, 11.156144, 0, 6353427, -9.6, 3000
1, 0, 0.5, 0, 1, 0, SS03.asc, 718, 0, -9.6, -9.6, 0, 6.0, 10.101764, 50, 0, -0.261799, 177, 500, 1, -9.6, 0.5, 500, 6354864, 4.0, 4.0, -0.034907, 14.028754, 90, 47, 0, 0, 12.457958, 1, 6359852, -9.6, 3000
1, 0, 0.5, 0, 1, 0, SS03.asc, 765, 0, -9.6, -9.6, 0, 6.0, 8.998606, 50, 0, 0.523599, 292, 500, 1, -9.6, 0.5, 500, 6360893, 4.0, 4.0, -0.034907, 12.925597, 91, 47, 0, 0, 11.3548, 0, 6365929, -9.6, 3000
1, 0, 0.5, 0, 0, 0, SS03.asc, 470, 0, -9.6, -9.6, 1, 6.0, 6.546463, 50, 0, -0.261799, 325, 500, 1, -9.6, 0.5, 500, 6367745, 4.0, 4.0, -0.10472, 8.902658, 92, 47, 0, 0, 10.473454, 1, 6372486, -9.6, 3000
0, 0, 0.5, 0, 0, 0, SS03.asc, 577, 0, -9.6, -9.6, 0, 6.0, 6.512331, 50, 0, 0.523599, 197, 500, 1, -9.6, 0.5, 500, 6373524, 4.0, 4.0, 0.10472, 8.868526, 93, 122, 0, 1, 8.868526, 1, 6378370, -9.6, 3000
0, 0, 0.5, 0, 1, 0, SS03.asc, 653, 0, -9.6, -9.6, 1, 6.0, 10.023145, 50, 0, -0.261799, 237, 500, 1, -9.6, 0.5, 500, 6379410, 4.0, 4.0, 0.069813, 13.950135, 94, 122, 0, 1, 13.950135, 0, 6384336, -9.6, 3000
0, 0, 0.5, 0, 0, 0, SS03.asc, 540, 0, -9.6, -9.6, 0, 6.0, 12.218146, 50, 0, 0.261799, 151, 500, 1, -9.6, 0.5, 500, 6385373, 4.0, 4.0, 0.10472, 14.574341, 95, 122, 0, 1, 14.574341, 1, 6390183, -9.6, 3000
0, 0, 0.5, 0, 0, 0, SS03.asc, 619, 0, -9.6, -9.6, 0, 6.0, 12.424856, 50, 0, -0.523599, 34, 500, 1, -9.6, 0.5, 500, 6391220, 4.0, 4.0, 0.069813, 14.781051, 96, 122, 0, 1, 14.781051, 0, 6396109, -9.6, 3000
0, 0, 0.5, 0, 0, 0, SS03.asc, 463, 0, -9.6, -9.6, 0, 6.0, 12.426582, 50, 0, -0.523599, 199, 500, 1, -9.6, 0.5, 500, 6397145, 4.0, 4.0, -0.10472, 14.782777, 97, 47, 0, 1, 14.782777, 1, 6401880, -9.6, 3000
1, 0, 0.5, 0, 0, 0, SS03.asc, 643, 0, -9.6, -9.6, 1, 6.0, 11.876634, 50, 0, -0.523599, 255, 500, 0, -9.6, 0.5, 500, 6402927, 4.0, 4.0, -0.069813, 14.232828, 98, 122, 0, 0, 15.803624, 1, 6407840, -9.6, 3000
0, 0, 0.5, 0, 1, 0, SS03.asc, 501, 0, -9.6, -9.6, 1, 6.0, 6.892769, 50, 0, -0.523599, 176, 500, 0, -9.6, 0.5, 500, 6408878, 4.0, 4.0, -0.10472, 10.81976, 99, 122, 0, 1, 10.81976, 1, 6413650, -9.6, 3000
0, 0, 0.5, 1, 1, 0, SS03.asc, 770, 0, -9.6, -9.6, 0, 6.0, 11.756596, 50, 0, -0.261799, 83, 500, 1, -9.6, 0.5, 500, 6414687, 4.0, 4.0, 0.069813, 15.683587, 100, 122, 0, 0, 14.11279, 0, 6419727, -9.6, 3000
1, 0, 0.5, 0, 0, 0, SS03.asc, 540, 0, -9.6, -9.6, 1, 6.0, 8.934176, 50, 0, -0.261799, 42, 500, 1, -9.6, 0.5, 500, 6420765, 4.0, 4.0, 0.069813, 11.290371, 101, 122, 0, 0, 12.861168, 0, 6425576, -9.6, 3000
0, 0, 0.5, 1, 1, 0, SS03.asc, 814, 0, -9.6, -9.6, 0, 6.0, 10.273767, 50, 0, -0.261799, 220, 500, 1, -9.6, 0.5, 500, 6426840, 4.0, 4.0, 0.069813, 14.200757, 102, 122, 0, 0, 12.629961, 0, 6431924, -9.6, 3000
0, 0, 0.5, 1, 0, 0, SS03.asc, 465, 0, -9.6, -9.6, 1, 6.0, 11.767526, 50, 0, 0.261799, 303, 500, 1, -9.6, 0.5, 500, 6432961, 4.0, 4.0, 0.034907, 14.12372, 103, 122, 0, 0, 15.694516, 1, 6437696, -9.6, 3000
1, 0, 0.5, 0, 0, 0, SS03.asc, 528, 0, -9.6, -9.6, 1, 6.0, 10.114611, 50, 0, -0.261799, 119, 500, 1, -9.6, 0.5, 500, 6438743, 4.0, 4.0, 0.069813, 12.470805, 104, 122, 0, 0, 14.041602, 0, 6443542, -9.6, 3000
1, 0, 0.5, 0, 1, 0, SS03.asc, 654, 0, -9.6, -9.6, 0, 6.0, 10.034842, 50, 0, 0.523599, 37, 500, 1, -9.6, 0.5, 500, 6444579, 4.0, 4.0, 0.10472, 13.961832, 105, 122, 0, 0, 12.391036, 1, 6449504, -9.6, 3000
1, 0, 0.5, 0, 1, 0, SS03.asc, 693, 0, -9.6, -9.6, 0, 6.0, 11.911149, 50, 0, -0.523599, 163, 500, 1, -9.6, 0.5, 500, 6450541, 4.0, 4.0, 0.10472, 15.83814, 106, 122, 0, 0, 14.267344, 0, 6455504, -9.6, 3000
0, 0, 0.5, 0, 0, 0, SS03.asc, 650, 0, -9.6, -9.6, 0, 6.0, 10.150085, 50, 0, 0.523599, 232, 500, 1, -9.6, 0.5, 500, 6456546, 4.0, 4.0, 0.034907, 12.50628, 107, 122, 0, 1, 12.50628, 1, 6461467, -9.6, 3000
0, 0, 0.5, 0, 0, 0, SS03.asc, 689, 0, -9.6, -9.6, 0, 6.0, 12.190534, 50, 0, -0.523599, 58, 500, 1, -9.6, 0.5, 500, 6462506, 4.0, 4.0, 0.034907, 14.546728, 108, 122, 0, 1, 14.546728, 0, 6467467, -9.6, 3000
0, 0, 0.5, 0, 1, 0, SS03.asc, 684, 0, -9.6, -9.6, 1, 6.0, 6.819136, 50, 0, -0.261799, 262, 500, 1, -9.6, 0.5, 500, 6469321, 4.0, 4.0, 0.034907, 10.746127, 109, 122, 0, 1, 10.746127, 0, 6474276, -9.6, 3000
0, 0, 0.5, 0, 1, 0, SS03.asc, 743, 0, -9.6, -9.6, 1, 6.0, 6.481075, 50, 0, 0.523599, 75, 500, 0, -9.6, 0.5, 500, 6475278, 4.0, 4.0, 0.10472, 10.408066, 110, 47, 0, 1, 10.408066, 1, 6480292, -9.6, 3000
1, 0, 0.5, 0, 1, 0, SS03.asc, 806, 0, -9.6, -9.6, 0, 6.0, 8.736287, 50, 0, -0.261799, 137, 500, 1, -9.6, 0.5, 500, 6481331, 4.0, 4.0, -0.069813, 12.663279, 111, 47, 0, 0, 11.092482, 1, 6486409, -9.6, 3000
0, 0, 0.5, 1, 1, 0, SS03.asc, 689, 0, -9.6, -9.6, 0, 6.0, 11.728216, 50, 0, -0.261799, 195, 500, 1, -9.6, 0.5, 500, 6487447, 4.0, 4.0, 0.10472, 15.655208, 112, 122, 0, 0, 14.084411, 0, 6492410, -9.6, 3000
1, 0, 0.5, 0, 0, 0, SS03.asc, 805, 0, -9.6, -9.6, 1, 6.0, 8.909441, 50, 0, -0.523599, 84, 500, 1, -9.6, 0.5, 500, 6493448, 4.0, 4.0, -0.034907, 11.265635, 113, 47, 0, 0, 12.836432, 1, 6498526, -9.6, 3000
0, 0, 0.5, 0, 1, 0, SS03.asc, 1692, 0, -9.6, -9.6, 1, 6.0, 6.904275, 50, 0, 0.261799, 150, 500, 0, -9.6, 0.5, 500, 6499564, 4.0, 4.0, 0.034907, 10.831265, 114, 47, 0, 1, 10.831265, 1, 6505526, -9.6, 3000
0, 0, 0.5, 0, 0, 0, SS03.asc, 690, 0, -9.6, -9.6, 0, 6.0, 10.220459, 50, 0, 0.523599, 381, 500, 1, -9.6, 0.5, 500, 6506565, 4.0, 4.0, -0.034907, 12.576653, 115, 47, 0, 1, 12.576653, 0, 6511526, -9.6, 3000
1, 0, 0.5, 0, 1, 0, SS03.asc, 502, 0, -9.6, -9.6, 0, 6.0, 9.912503, 50, 0, 0.261799, 14, 500, 0, -9.6, 0.5, 500, 6512563, 4.0, 4.0, 0.034907, 13.839494, 116, 47, 0, 0, 12.268698, 1, 6517335, -9.6, 3000
1, 0, 0.5, 0, 1, 0, SS03.asc, 497, 0, -9.6, -9.6, 0, 6.0, 11.923229, 50, 0, 0.523599, 299, 500, 0, -9.6, 0.5, 500, 6518374, 4.0, 4.0, 0.069813, 15.850221, 117, 47, 0, 0, 14.279424, 1, 6523143, -9.6, 3000
1, 0, 0.5, 0, 1, 0, SS03.asc, 412, 0, -9.6, -9.6, 0, 6.0, 10.078562, 50, 0, 0.261799, 116, 500, 0, -9.6, 0.5, 500, 6524846, 4.0, 4.0, 0.10472, 14.005552, 118, 47, 0, 0, 12.434756, 1, 6529529, -9.6, 3000
0, 0, 0.5, 0, 0, 0, SS03.asc, 335, 0, -9.6, -9.6, 0, 6.0, 9.639446, 50, 1, -0.261799, 300, 500, 1, -9.6, 0.5, 500, 6530576, 4.0, 4.0, 0.069813, 11.995641, 119, 122, 0, 1, 11.995641, 0, 6535182, -9.6, 3000
1, 0, 0.5, 0, 1, 0, SS03.asc, 567, 0, -9.6, -9.6, 0, 6.0, 9.989588, 50, 0, 0.523599, 156, 500, 1, -9.6, 0.5, 500, 6536651, 4.0, 4.0, 0.034907, 13.916578, 120, 122, 0, 0, 12.345782, 1, 6541492, -9.6, 3000
1, 0, 0.5, 0, 0, 0, SS03.asc, 845, 0, -9.6, -9.6, 1, 6.0, 7.029682, 50, 0, 0.261799, 315, 500, 0, -9.6, 0.5, 500, 6542531, 4.0, 4.0, 0.069813, 9.385876, 121, 47, 0, 0, 10.956673, 1, 6547646, -9.6, 3000
0, 0, 0.5, 1, 0, 0, SS03.asc, 538, 0, -9.6, -9.6, 1, 6.0, 8.59228, 50, 0, 0.261799, 65, 500, 1, -9.6, 0.5, 500, 6548684, 4.0, 4.0, -0.10472, 10.948475, 122, 47, 0, 0, 12.519271, 0, 6553493, -9.6, 3000
0, 0, 0.5, 0, 1, 0, SS03.asc, 501, 0, -9.6, -9.6, 1, 6.0, 12.328404, 50, 0, 0.261799, 33, 500, 1, -9.6, 0.5, 500, 6554912, 4.0, 4.0, -0.069813, 16.255396, 123, 47, 0, 1, 16.255396, 0, 6559685, -9.6, 3000
0, 0, 0.5, 0, 1, 0, SS03.asc, 671, 0, -9.6, -9.6, 1, 6.0, 9.481825, 50, 0, -0.261799, 173, 500, 1, -9.6, 0.5, 500, 6560723, 4.0, 4.0, 0.069813, 13.408815, 124, 122, 0, 1, 13.408815, 0, 6565664, -9.6, 3000
1, 0, 0.5, 0, 0, 0, SS03.asc, 446, 0, -9.6, -9.6, 1, 6.0, 6.689894, 50, 0, -0.261799, 135, 500, 1, -9.6, 0.5, 500, 6566704, 4.0, 4.0, -0.10472, 9.046089, 125, 47, 0, 0, 10.616885, 1, 6571450, -9.6, 3000
0, 0, 0.5, 0, 0, 0, SS03.asc, 511, 0, -9.6, -9.6, 0, 6.0, 12.315366, 50, 0, -0.261799, 76, 500, 1, -9.6, 0.5, 500, 6572489, 4.0, 4.0, 0.10472, 14.67156, 126, 122, 0, 1, 14.67156, 0, 6577281, -9.6, 3000
1, 0, 0.5, 0, 0, 0, SS03.asc, 532, 0, -9.6, -9.6, 1, 6.0, 6.302169, 50, 0, -0.523599, 277, 500, 1, -9.6, 0.5, 500, 6578320, 4.0, 4.0, -0.10472, 8.658363, 127, 47, 0, 0, 10.229159, 1, 6583130, -9.6, 3000
0, 0, 0.5, 0, 0, 0, SS03.asc, 609, 0, -9.6, -9.6, 0, 6.0, 11.784592, 50, 0, 0.261799, 98, 500, 1, -9.6, 0.5, 500, 6603049, 4.0, 4.0, -0.069813, 14.140786, 128, 47, 0, 1, 14.140786, 0, 6607979, -9.6, 3000
0, 0, 0.5, 0, 1, 0, SS03.asc, 968, 0, -9.6, -9.6, 1, 6.0, 8.863228, 50, 0, -0.261799, 102, 500, 0, -9.6, 0.5, 500, 6609664, 4.0, 4.0, -0.034907, 12.790219, 129, 122, 0, 1, 12.790219, 1, 6614903, -9.6, 3000
0, 0, 0.5, 0, 1, 0, SS03.asc, 738, 0, -9.6, -9.6, 1, 6.0, 12.32361, 50, 0, -0.261799, 136, 500, 0, -9.6, 0.5, 500, 6616701, 4.0, 4.0, -0.034907, 16.250601, 130, 122, 0, 1, 16.250601, 1, 6621711, -9.6, 3000
0, 0, 0.5, 0, 1, 0, SS03.asc, 532, 0, -9.6, -9.6, 1, 6.0, 6.648667, 50, 0, -0.523599, 18, 500, 1, -9.6, 0.5, 500, 6622754, 4.0, 4.0, 0.034907, 10.575658, 131, 122, 0, 1, 10.575658, 0, 6627558, -9.6, 3000
0, 0, 0.5, 1, 0, 0, SS03.asc, 575, 0, -9.6, -9.6, 1, 6.0, 11.72208, 50, 0, -0.261799, 351, 500, 0, -9.6, 0.5, 500, 6628597, 4.0, 4.0, -0.034907, 14.078275, 132, 122, 0, 0, 15.649071, 1, 6633444, -9.6, 3000
1, 0, 0.5, 0, 1, 0, SS03.asc, 514, 0, -9.6, -9.6, 0, 6.0, 6.37561, 50, 0, -0.523599, 289, 500, 1, -9.6, 0.5, 500, 6634502, 4.0, 4.0, 0.069813, 10.302602, 133, 122, 0, 0, 8.731805, 0, 6639290, -9.6, 3000
0, 0, 0.5, 0, 0, 0, SS03.asc, 650, 0, -9.6, -9.6, 0, 6.0, 6.908685, 50, 0, 0.261799, 250, 500, 0, -9.6, 0.5, 500, 6640330, 4.0, 4.0, 0.10472, 9.264879, 134, 47, 0, 1, 9.264879, 1, 6645252, -9.6, 3000
0, 0, 0.5, 1, 1, 0, SS03.asc, 536, 0, -9.6, -9.6, 0, 6.0, 10.271849, 50, 0, 0.261799, 161, 500, 1, -9.6, 0.5, 500, 6647022, 4.0, 4.0, -0.10472, 14.19884, 135, 47, 0, 0, 12.628043, 0, 6651830, -9.6, 3000
0, 0, 0.5, 0, 1, 0, SS03.asc, 1051, 0, -9.6, -9.6, 1, 6.0, 6.289896, 50, 0, -0.261799, 344, 500, 1, -9.6, 0.5, 500, 6652870, 4.0, 4.0, -0.069813, 10.216887, 136, 47, 0, 1, 10.216887, 1, 6658194, -9.6, 3000
0, 0, 0.5, 0, 0, 0, SS03.asc, 612, 0, -9.6, -9.6, 0, 6.0, 9.188058, 50, 0, 0.261799, 117, 500, 0, -9.6, 0.5, 500, 6659234, 4.0, 4.0, -0.10472, 11.544252, 137, 122, 0, 1, 11.544252, 0, 6664118, -9.6, 3000
1, 0, 0.5, 0, 1, 0, SS03.asc, 497, 0, -9.6, -9.6, 0, 6.0, 9.237339, 50, 0, 0.523599, 4, 500, 1, -9.6, 0.5, 500, 6665157, 4.0, 4.0, -0.10472, 13.16433, 138, 47, 0, 0, 11.593534, 0, 6669927, -9.6, 3000
1, 0, 0.5, 0, 0, 0, SS03.asc, 573, 0, -9.6, -9.6, 1, 6.0, 9.780768, 50, 0, -0.261799, 159, 500, 1, -9.6, 0.5, 500, 6670967, 4.0, 4.0, -0.034907, 12.136963, 139, 47, 0, 0, 13.707759, 1, 6675812, -9.6, 3000
0, 0, 0.5, 0, 0, 0, SS03.asc, 557, 0, -9.6, -9.6, 0, 6.0, 10.135512, 50, 0, -0.261799, 50, 500, 1, -9.6, 0.5, 500, 6676832, 4.0, 4.0, 0.034907, 12.491707, 140, 122, 0, 1, 12.491707, 0, 6681660, -9.6, 3000
0, 0, 0.5, 0, 0, 0, SS03.asc, 652, 0, -9.6, -9.6, 0, 6.0, 6.647133, 50, 0, -0.261799, 142, 500, 1, -9.6, 0.5, 500, 6682698, 4.0, 4.0, -0.034907, 9.003328, 141, 47, 0, 1, 9.003328, 1, 6687622, -9.6, 3000
1, 0, 0.5, 0, 1, 0, SS03.asc, 652, 0, -9.6, -9.6, 0, 6.0, 12.109613, 50, 0, 0.523599, 15, 500, 1, -9.6, 0.5, 500, 6688661, 4.0, 4.0, -0.034907, 16.036604, 142, 47, 0, 0, 14.465809, 0, 6693585, -9.6, 3000
0, 0, 0.5, 1, 1, 0, SS03.asc, 603, 0, -9.6, -9.6, 0, 6.0, 7.072251, 50, 0, -0.523599, 311, 500, 1, -9.6, 0.5, 500, 6695135, 4.0, 4.0, -0.069813, 10.999242, 143, 47, 0, 0, 9.428445, 1, 6700009, -9.6, 3000
0, 0, 0.5, 1, 1, 0, SS03.asc, 575, 0, -9.6, -9.6, 0, 6.0, 8.596498, 50, 0, -0.523599, 279, 500, 0, -9.6, 0.5, 500, 6701048, 4.0, 4.0, -0.034907, 12.52349, 144, 122, 0, 0, 10.952694, 1, 6705896, -9.6, 3000
1, 0, 0.5, 0, 1, 0, SS03.asc, 497, 0, -9.6, -9.6, 0, 6.0, 6.653653, 50, 0, -0.523599, 319, 500, 1, -9.6, 0.5, 500, 6706935, 4.0, 4.0, -0.034907, 10.580644, 145, 47, 0, 0, 9.009848, 1, 6711703, -9.6, 3000
1, 0, 0.5, 0, 0, 0, SS03.asc, 631, 0, -9.6, -9.6, 1, 6.0, 9.031396, 50, 0, -0.523599, 90, 500, 1, -9.6, 0.5, 500, 6712742, 4.0, 4.0, 0.034907, 11.38759, 146, 122, 0, 0, 12.958386, 0, 6717645, -9.6, 3000
1, 0, 0.5, 0, 1, 0, SS03.asc, 654, 0, -9.6, -9.6, 0, 6.0, 12.109038, 50, 0, -0.261799, 349, 500, 1, -9.6, 0.5, 500, 6718685, 4.0, 4.0, 0.069813, 16.03603, 147, 122, 0, 0, 14.465233, 0, 6723610, -9.6, 3000
1, 0, 0.5, 0, 1, 0, SS03.asc, 912, 0, -9.6, -9.6, 0, 6.0, 8.880677, 50, 0, 0.523599, 278, 500, 0, -9.6, 0.5, 500, 6724658, 4.0, 4.0, -0.034907, 12.807669, 148, 122, 0, 0, 11.236872, 0, 6729842, -9.6, 3000
0, 0, 0.5, 1, 0, 0, SS03.asc, 515, 0, -9.6, -9.6, 1, 6.0, 8.619893, 50, 0, 0.523599, 376, 500, 0, -9.6, 0.5, 500, 6730880, 4.0, 4.0, 0.034907, 10.976088, 149, 47, 0, 0, 12.546884, 1, 6735667, -9.6, 3000
0, 0, 0.5, 0, 1, 0, SS03.asc, 540, 0, -9.6, -9.6, 1, 6.0, 9.416437, 50, 0, 0.523599, 275, 500, 1, -9.6, 0.5, 500, 6736704, 4.0, 4.0, -0.10472, 13.343428, 150, 47, 0, 1, 13.343428, 0, 6741515, -9.6, 3000
0, 0, 0.5, 0, 1, 0, SS03.asc, 482, 0, -9.6, -9.6, 1, 6.0, 9.279333, 50, 0, 0.261799, 339, 500, 1, -9.6, 0.5, 500, 6742838, 4.0, 4.0, -0.10472, 13.206324, 151, 47, 0, 1, 13.206324, 0, 6747591, -9.6, 3000
0, 0, 0.5, 1, 0, 0, SS03.asc, 460, 0, -9.6, -9.6, 1, 6.0, 8.602059, 50, 0, -0.523599, 144, 500, 1, -9.6, 0.5, 500, 6748629, 4.0, 4.0, -0.069813, 10.958254, 152, 47, 0, 0, 12.529051, 1, 6753362, -9.6, 3000
1, 0, 0.5, 0, 0, 0, SS03.asc, 556, 0, -9.6, -9.6, 1, 6.0, 6.658638, 50, 0, 0.523599, 268, 500, 1, -9.6, 0.5, 500, 6754610, 4.0, 4.0, -0.034907, 9.014833, 153, 47, 0, 0, 10.585629, 0, 6759439, -9.6, 3000
1, 0, 0.5, 0, 1, 0, SS03.asc, 776, 0, -9.6, -9.6, 0, 6.0, 8.854407, 50, 0, 0.261799, 153, 500, 1, -9.6, 0.5, 500, 6760857, 4.0, 4.0, 0.069813, 12.781398, 154, 122, 0, 0, 11.210602, 1, 6765904, -9.6, 3000
0, 0, 0.5, 1, 0, 0, SS03.asc, 572, 0, -9.6, -9.6, 1, 6.0, 7.143391, 50, 0, -0.523599, 363, 500, 1, -9.6, 0.5, 500, 6766944, 4.0, 4.0, -0.10472, 9.499586, 155, 47, 0, 0, 11.070382, 1, 6771789, -9.6, 3000
1, 0, 0.5, 0, 1, 0, SS03.asc, 498, 0, -9.6, -9.6, 0, 6.0, 11.966566, 50, 0, -0.523599, 148, 500, 1, -9.6, 0.5, 500, 6772827, 4.0, 4.0, -0.069813, 15.893557, 156, 47, 0, 0, 14.322761, 1, 6777598, -9.6, 3000
1, 0, 0.5, 0, 1, 0, SS03.asc, 539, 0, -9.6, -9.6, 0, 6.0, 8.879527, 50, 0, -0.261799, 196, 500, 1, -9.6, 0.5, 500, 6779634, 4.0, 4.0, 0.10472, 12.806518, 157, 122, 0, 0, 11.235722, 0, 6784444, -9.6, 3000
0, 0, 0.5, 0, 0, 0, SS03.asc, 727, 0, -9.6, -9.6, 0, 6.0, 12.327446, 50, 0, 0.261799, 359, 500, 1, -9.6, 0.5, 500, 6785483, 4.0, 4.0, 0.069813, 14.68364, 158, 122, 0, 1, 14.68364, 1, 6790483, -9.6, 3000
1, 0, 0.5, 0, 0, 0, SS03.asc, 496, 0, -9.6, -9.6, 1, 6.0, 6.681649, 50, 0, 0.261799, 175, 500, 1, -9.6, 0.5, 500, 6791522, 4.0, 4.0, -0.10472, 9.037844, 159, 47, 0, 0, 10.60864, 0, 6796292, -9.6, 3000
1, 0, 0.5, 0, 0, 0, SS03.asc, 690, 0, -9.6, -9.6, 1, 6.0, 6.908685, 50, 0, 0.523599, 283, 500, 0, -9.6, 0.5, 500, 6797331, 4.0, 4.0, 0.069813, 9.264879, 160, 47, 0, 0, 10.835676, 1, 6802293, -9.6, 3000
0, 0, 0.5, 0, 1, 0, SS03.asc, 497, 0, -9.6, -9.6, 1, 6.0, 12.117284, 50, 0, -0.261799, 280, 500, 1, -9.6, 0.5, 500, 6803332, 4.0, 4.0, 0.10472, 16.044275, 161, 122, 0, 1, 16.044275, 0, 6808102, -9.6, 3000
1, 0, 0.5, 0, 0, 0, SS03.asc, 740, 0, -9.6, -9.6, 1, 6.0, 9.434653, 50, 0, 0.261799, 171, 500, 0, -9.6, 0.5, 500, 6809823, 4.0, 4.0, 0.069813, 11.790848, 162, 47, 0, 0, 13.361644, 1, 6814834, -9.6, 3000
1, 0, 0.5, 0, 1, 0, SS03.asc, 768, 0, -9.6, -9.6, 0, 6.0, 6.298142, 50, 0, 0.523599, 288, 500, 1, -9.6, 0.5, 500, 6815872, 4.0, 4.0, 0.10472, 10.225133, 163, 122, 0, 0, 8.654337, 1, 6820912, -9.6, 3000
0, 0, 0.5, 0, 1, 0, SS03.asc, 576, 0, -9.6, -9.6, 1, 6.0, 8.858434, 50, 0, -0.261799, 77, 500, 1, -9.6, 0.5, 500, 6821951, 4.0, 4.0, 0.10472, 12.785425, 164, 122, 0, 1, 12.785425, 0, 6826797, -9.6, 3000
0, 0, 0.5, 0, 0, 0, SS03.asc, 652, 0, -9.6, -9.6, 0, 6.0, 6.308497, 50, 0, 0.523599, 200, 500, 0, -9.6, 0.5, 500, 6827836, 4.0, 4.0, 0.069813, 8.664691, 165, 47, 0, 1, 8.664691, 1, 6832759, -9.6, 3000
0, 0, 0.5, 1, 1, 0, SS03.asc, 767, 0, -9.6, -9.6, 0, 6.0, 10.258042, 50, 0, 0.261799, 252, 500, 1, -9.6, 0.5, 500, 6833797, 4.0, 4.0, 0.034907, 14.185034, 166, 122, 0, 0, 12.614237, 1, 6838836, -9.6, 3000
0, 0, 0.5, 0, 0, 0, SS03.asc, 577, 0, -9.6, -9.6, 0, 6.0, 8.992086, 50, 0, -0.261799, 121, 500, 1, -9.6, 0.5, 500, 6839875, 4.0, 4.0, -0.069813, 11.348281, 167, 47, 0, 1, 11.348281, 1, 6844723, -9.6, 3000
1, 0, 0.5, 0, 0, 0, SS03.asc, 961, 0, -9.6, -9.6, 1, 6.0, 6.314441, 50, 0, 0.523599, 130, 500, 1, -9.6, 0.5, 500, 6845760, 4.0, 4.0, 0.034907, 8.670635, 168, 122, 0, 0, 10.241432, 1, 6850993, -9.6, 3000
1, 0, 0.5, 0, 0, 0, SS03.asc, 771, 0, -9.6, -9.6, 1, 6.0, 8.745108, 50, 0, -0.261799, 105, 500, 1, -9.6, 0.5, 500, 6852029, 4.0, 4.0, 0.069813, 11.101302, 169, 122, 0, 0, 12.672099, 0, 6857071, -9.6, 3000
0, 0, 0.5, 0, 0, 0, SS03.asc, 537, 0, -9.6, -9.6, 0, 6.0, 12.038473, 50, 0, 0.523599, 25, 500, 1, -9.6, 0.5, 500, 6858109, 4.0, 4.0, -0.10472, 14.394668, 170, 47, 0, 1, 14.394668, 0, 6862917, -9.6, 3000
0, 0, 0.5, 0, 0, 0, SS03.asc, 578, 0, -9.6, -9.6, 0, 6.0, 8.873008, 50, 0, -0.261799, 382, 500, 1, -9.6, 0.5, 500, 6863954, 4.0, 4.0, -0.10472, 11.229202, 171, 47, 0, 1, 11.229202, 1, 6868803, -9.6, 3000
0, 0, 0.5, 0, 0, 0, SS03.asc, 571, 0, -9.6, -9.6, 0, 6.0, 10.223527, 50, 0, 0.261799, 231, 500, 1, -9.6, 0.5, 500, 6869841, 4.0, 4.0, -0.034907, 12.579721, 172, 47, 0, 1, 12.579721, 0, 6874688, -9.6, 3000
0, 0, 0.5, 0, 0, 0, SS03.asc, 615, 0, -9.6, -9.6, 0, 6.0, 9.969837, 50, 0, -0.523599, 79, 500, 1, -9.6, 0.5, 500, 6875726, 4.0, 4.0, -0.034907, 12.326032, 173, 47, 0, 1, 12.326032, 1, 6880613, -9.6, 3000
0, 0, 0.5, 1, 0, 0, SS03.asc, 619, 0, -9.6, -9.6, 1, 6.0, 10.243853, 50, 0, 0.523599, 87, 500, 1, -9.6, 0.5, 500, 6881839, 4.0, 4.0, -0.034907, 12.600047, 174, 47, 0, 0, 14.170844, 0, 6886729, -9.6, 3000
1, 0, 0.5, 0, 0, 0, SS03.asc, 722, 0, -9.6, -9.6, 1, 6.0, 12.494655, 50, 0, -0.523599, 103, 500, 1, -9.6, 0.5, 500, 6887753, 4.0, 4.0, 0.10472, 14.850849, 175, 122, 0, 0, 16.421646, 0, 6892746, -9.6, 3000
0, 0, 0.5, 0, 1, 0, SS03.asc, 767, 0, -9.6, -9.6, 1, 6.0, 9.637337, 50, 0, 0.261799, 128, 500, 0, -9.6, 0.5, 500, 6893786, 4.0, 4.0, 0.069813, 13.564327, 176, 47, 0, 1, 13.564327, 1, 6898823, -9.6, 3000
1, 0, 0.5, 0, 1, 0, SS03.asc, 615, 0, -9.6, -9.6, 0, 6.0, 9.142612, 50, 0, -0.523599, 347, 500, 1, -9.6, 0.5, 500, 6899861, 4.0, 4.0, -0.10472, 13.069604, 177, 47, 0, 0, 11.498807, 1, 6904748, -9.6, 3000
1, 0, 0.5, 0, 0, 0, SS03.asc, 769, 0, -9.6, -9.6, 1, 6.0, 10.051908, 50, 0, -0.261799, 44, 500, 1, -9.6, 0.5, 500, 6905786, 4.0, 4.0, -0.10472, 12.408102, 178, 47, 0, 0, 13.978899, 1, 6910825, -9.6, 3000
1, 0, 0.5, 0, 0, 0, SS03.asc, 809, 0, -9.6, -9.6, 1, 6.0, 9.460348, 50, 0, 0.261799, 298, 500, 0, -9.6, 0.5, 500, 6911863, 4.0, 4.0, 0.069813, 11.816543, 179, 47, 0, 0, 13.38734, 1, 6916951, -9.6, 3000
0, 0, 0.5, 0, 0, 0, SS03.asc, 685, 0, -9.6, -9.6, 0, 6.0, 7.016642, 50, 0, 0.261799, 107, 500, 1, -9.6, 0.5, 500, 6917988, 4.0, 4.0, -0.069813, 9.372837, 180, 47, 0, 1, 9.372837, 0, 6922944, -9.6, 3000
1, 0, 0.5, 0, 0, 0, SS03.asc, 652, 0, -9.6, -9.6, 1, 6.0, 9.84213, 50, 0, 0.261799, 263, 500, 1, -9.6, 0.5, 500, 6923983, 4.0, 4.0, -0.034907, 12.198324, 181, 47, 0, 0, 13.76912, 0, 6928906, -9.6, 3000
1, 0, 0.5, 0, 0, 0, SS03.asc, 461, 0, -9.6, -9.6, 1, 6.0, 9.557759, 50, 0, 0.523599, 221, 500, 1, -9.6, 0.5, 500, 6929943, 4.0, 4.0, -0.10472, 11.913954, 182, 47, 0, 0, 13.48475, 0, 6934676, -9.6, 3000
1, 0, 0.5, 0, 0, 0, SS03.asc, 579, 0, -9.6, -9.6, 1, 6.0, 9.464375, 50, 0, 0.261799, 110, 500, 1, -9.6, 0.5, 500, 6935713, 4.0, 4.0, -0.10472, 11.82057, 183, 47, 0, 0, 13.391366, 0, 6940561, -9.6, 3000
1, 0, 0.5, 0, 1, 0, SS03.asc, 769, 0, -9.6, -9.6, 0, 6.0, 9.551431, 50, 0, -0.523599, 17, 500, 0, -9.6, 0.5, 500, 6941600, 4.0, 4.0, 0.034907, 13.478422, 184, 47, 0, 0, 11.907625, 0, 6946639, -9.6, 3000
1, 0, 0.5, 0, 0, 0, SS03.asc, 676, 0, -9.6, -9.6, 1, 6.0, 8.652299, 50, 0, 0.523599, 160, 500, 1, -9.6, 0.5, 500, 6947684, 4.0, 4.0, 0.069813, 11.008493, 185, 122, 0, 0, 12.57929, 1, 6952641, -9.6, 3000
1, 0, 0.5, 0, 0, 0, SS03.asc, 924, 0, -9.6, -9.6, 1, 6.0, 6.740517, 50, 0, 0.523599, 227, 500, 1, -9.6, 0.5, 500, 6953677, 4.0, 4.0, 0.034907, 9.096712, 186, 122, 0, 0, 10.667508, 1, 6958872, -9.6, 3000
0, 0, 0.5, 0, 0, 0, SS03.asc, 412, 0, -9.6, -9.6, 0, 6.0, 11.851514, 50, 0, -0.523599, 364, 500, 1, -9.6, 0.5, 500, 6959920, 4.0, 4.0, -0.034907, 14.207708, 187, 47, 0, 1, 14.207708, 1, 6964605, -9.6, 3000
0, 0, 0.5, 0, 0, 0, SS03.asc, 534, 0, -9.6, -9.6, 0, 6.0, 7.14761, 50, 0, -0.261799, 216, 500, 1, -9.6, 0.5, 500, 6965648, 4.0, 4.0, 0.10472, 9.503804, 188, 122, 0, 1, 9.503804, 0, 6970451, -9.6, 3000
1, 0, 0.5, 0, 1, 0, SS03.asc, 646, 0, -9.6, -9.6, 0, 6.0, 10.162357, 50, 0, -0.261799, 261, 500, 1, -9.6, 0.5, 500, 6971498, 4.0, 4.0, 0.034907, 14.089349, 189, 122, 0, 0, 12.518552, 0, 6976415, -9.6, 3000
0, 0, 0.5, 0, 1, 0, SS03.asc, 492, 0, -9.6, -9.6, 1, 6.0, 6.889701, 50, 0, -0.261799, 170, 500, 1, -9.6, 0.5, 500, 6977454, 4.0, 4.0, 0.034907, 10.816692, 190, 122, 0, 1, 10.816692, 0, 6982224, -9.6, 3000
0, 0, 0.5, 0, 0, 0, SS03.asc, 423, 0, -9.6, -9.6, 0, 6.0, 6.310031, 50, 0, -0.261799, 172, 500, 0, -9.6, 0.5, 500, 6983262, 4.0, 4.0, -0.034907, 8.666225, 191, 122, 0, 1, 8.666225, 1, 6987958, -9.6, 3000
0, 0, 0.5, 0, 0, 0, SS03.asc, 1299, 0, -9.6, -9.6, 0, 6.0, 9.186716, 50, 1, -0.523599, 305, 500, 0, -9.6, 0.5, 500, 7021089, 4.0, 4.0, 0.034907, 11.542911, 192, 47, 0, 1, 11.542911, 0, 7026658, -9.6, 3000
1, 0, 0.5, 0, 0, 0, SS03.asc, 544, 0, -9.6, -9.6, 1, 6.0, 12.0983, 50, 0, 0.523599, 19, 500, 1, -9.6, 0.5, 500, 7028306, 4.0, 4.0, -0.034907, 14.454495, 193, 47, 0, 0, 16.025291, 0, 7033122, -9.6, 3000
1, 0, 0.5, 0, 0, 0, SS03.asc, 377, 0, -9.6, -9.6, 1, 6.0, 12.46244, 50, 0, -0.261799, 239, 500, 1, -9.6, 0.5, 500, 7034161, 4.0, 4.0, 0.10472, 14.818635, 194, 122, 0, 0, 16.389431, 0, 7038816, -9.6, 3000
1, 0, 0.5, 0, 1, 0, SS03.asc, 552, 0, -9.6, -9.6, 0, 6.0, 12.464933, 50, 0, -0.261799, 290, 500, 1, -9.6, 0.5, 500, 7040917, 4.0, 4.0, 0.10472, 16.391924, 195, 122, 0, 0, 14.821128, 0, 7045742, -9.6, 3000
0, 0, 0.5, 0, 0, 0, SS03.asc, 612, 0, -9.6, -9.6, 0, 6.0, 6.910411, 50, 0, 0.523599, 260, 500, 0, -9.6, 0.5, 500, 7046782, 4.0, 4.0, 0.069813, 9.266605, 196, 47, 0, 1, 9.266605, 1, 7051665, -9.6, 3000
0, 0, 0.5, 0, 1, 0, SS03.asc, 554, 0, -9.6, -9.6, 1, 6.0, 6.954131, 50, 0, 0.523599, 309, 500, 1, -9.6, 0.5, 500, 7052686, 4.0, 4.0, -0.034907, 10.881122, 197, 47, 0, 1, 10.881122, 0, 7057513, -9.6, 3000
1, 0, 0.5, 0, 0, 0, SS03.asc, 872, 0, -9.6, -9.6, 1, 6.0, 9.74702, 50, 0, -0.523599, 234, 500, 0, -9.6, 0.5, 500, 7059483, 4.0, 4.0, -0.034907, 12.103214, 198, 122, 0, 0, 13.67401, 1, 7064629, -9.6, 3000
1, 0, 0.5, 0, 0, 0, SS03.asc, 496, 0, -9.6, -9.6, 1, 6.0, 8.813756, 50, 0, 0.523599, 49, 500, 0, -9.6, 0.5, 500, 7066631, 4.0, 4.0, 0.069813, 11.16995, 199, 47, 0, 0, 12.740746, 1, 7071400, -9.6, 3000
1, 0, 0.5, 0, 0, 0, SS03.asc, 825, 0, -9.6, -9.6, 1, 6.0, 12.425816, 50, 0, 0.261799, 259, 500, 1, -9.6, 0.5, 500, 7072651, 4.0, 4.0, -0.069813, 14.78201, 200, 47, 0, 0, 16.352806, 0, 7077747, -9.6, 3000
1, 0, 0.5, 0, 1, 0, SS03.asc, 868, 0, -9.6, -9.6, 0, 6.0, 8.737437, 50, 0, -0.261799, 113, 500, 0, -9.6, 0.5, 500, 7079147, 4.0, 4.0, 0.034907, 12.664429, 201, 47, 0, 0, 11.093633, 0, 7084287, -9.6, 3000
1, 0, 0.5, 0, 0, 0, SS03.asc, 471, 0, -9.6, -9.6, 1, 6.0, 12.494655, 50, 0, 0.261799, 246, 500, 1, -9.6, 0.5, 500, 7085477, 4.0, 4.0, 0.069813, 14.850849, 202, 122, 0, 0, 16.421646, 1, 7090228, -9.6, 3000
0, 0, 0.5, 0, 1, 0, SS03.asc, 524, 0, -9.6, -9.6, 1, 6.0, 9.546829, 50, 0, 0.523599, 174, 500, 0, -9.6, 0.5, 500, 7091741, 4.0, 4.0, 0.069813, 13.47382, 203, 47, 0, 1, 13.47382, 1, 7096537, -9.6, 3000
1, 0, 0.5, 0, 1, 0, SS03.asc, 498, 0, -9.6, -9.6, 0, 6.0, 12.193602, 50, 0, 0.261799, 99, 500, 1, -9.6, 0.5, 500, 7097575, 4.0, 4.0, -0.10472, 16.120592, 204, 47, 0, 0, 14.549796, 0, 7102345, -9.6, 3000
0, 0, 0.5, 0, 1, 0, SS03.asc, 459, 0, -9.6, -9.6, 1, 6.0, 7.136105, 50, 0, 0.261799, 355, 500, 1, -9.6, 0.5, 500, 7103384, 4.0, 4.0, 0.10472, 11.063096, 205, 122, 0, 1, 11.063096, 1, 7108115, -9.6, 3000
0, 0, 0.5, 0, 0, 0, SS03.asc, 421, 0, -9.6, -9.6, 0, 6.0, 12.294081, 50, 0, 0.261799, 202, 500, 0, -9.6, 0.5, 500, 7109154, 4.0, 4.0, 0.069813, 14.650275, 206, 47, 0, 1, 14.650275, 1, 7113847, -9.6, 3000
0, 0, 0.5, 0, 0, 0, SS03.asc, 451, 0, -9.6, -9.6, 0, 6.0, 6.398813, 50, 0, 0.523599, 271, 500, 1, -9.6, 0.5, 500, 7115165, 4.0, 4.0, -0.069813, 8.755007, 207, 47, 0, 1, 8.755007, 0, 7119887, -9.6, 3000
1, 0, 0.5, 0, 0, 0, SS03.asc, 641, 0, -9.6, -9.6, 1, 6.0, 8.706182, 50, 0, -0.523599, 365, 500, 1, -9.6, 0.5, 500, 7120939, 4.0, 4.0, 0.10472, 11.062376, 208, 122, 0, 0, 12.633173, 0, 7125852, -9.6, 3000
0, 0, 0.5, 0, 0, 0, SS03.asc, 535, 0, -9.6, -9.6, 0, 6.0, 12.562152, 50, 0, 0.261799, 85, 500, 0, -9.6, 0.5, 500, 7126893, 4.0, 4.0, 0.034907, 14.918346, 209, 47, 0, 1, 14.918346, 1, 7131699, -9.6, 3000
0, 0, 0.5, 0, 0, 0, SS03.asc, 653, 0, -9.6, -9.6, 0, 6.0, 9.930911, 50, 0, 0.261799, 346, 500, 1, -9.6, 0.5, 500, 7132737, 4.0, 4.0, -0.034907, 12.287106, 210, 47, 0, 1, 12.287106, 0, 7137661, -9.6, 3000
0, 0, 0.5, 0, 0, 0, SS03.asc, 713, 0, -9.6, -9.6, 0, 6.0, 7.082222, 50, 0, -0.523599, 282, 500, 1, -9.6, 0.5, 500, 7138909, 4.0, 4.0, 0.10472, 9.438416, 211, 122, 0, 1, 9.438416, 0, 7143893, -9.6, 3000
0, 0, 0.5, 0, 1, 0, SS03.asc, 940, 0, -9.6, -9.6, 1, 6.0, 8.994388, 50, 0, -0.523599, 108, 500, 1, -9.6, 0.5, 500, 7144951, 4.0, 4.0, 0.069813, 12.921378, 212, 122, 0, 1, 12.921378, 0, 7150163, -9.6, 3000
1, 0, 0.5, 0, 0, 0, SS03.asc, 685, 0, -9.6, -9.6, 1, 6.0, 9.009536, 50, 0, 0.261799, 69, 500, 1, -9.6, 0.5, 500, 7152285, 4.0, 4.0, -0.10472, 11.36573, 213, 47, 0, 0, 12.936527, 0, 7157241, -9.6, 3000
0, 0, 0.5, 0, 1, 0, SS03.asc, 688, 0, -9.6, -9.6, 1, 6.0, 10.28297, 50, 0, 0.523599, 106, 500, 1, -9.6, 0.5, 500, 7158281, 4.0, 4.0, -0.034907, 14.209962, 214, 47, 0, 1, 14.209962, 0, 7163242, -9.6, 3000
0, 0, 0.5, 0, 1, 0, SS03.asc, 603, 0, -9.6, -9.6, 1, 6.0, 9.192852, 50, 0, -0.523599, 62, 500, 1, -9.6, 0.5, 500, 7168639, 4.0, 4.0, -0.034907, 13.119843, 215, 47, 0, 1, 13.119843, 1, 7173513, -9.6, 3000
1, 0, 0.5, 0, 1, 0, SS03.asc, 533, 0, -9.6, -9.6, 0, 6.0, 6.611851, 50, 0, 0.261799, 139, 500, 1, -9.6, 0.5, 500, 7174553, 4.0, 4.0, -0.10472, 10.538841, 216, 47, 0, 0, 8.968045, 0, 7179360, -9.6, 3000
0, 0, 0.5, 1, 1, 0, SS03.asc, 1076, 0, -9.6, -9.6, 0, 6.0, 10.294092, 50, 0, -0.523599, 63, 500, 0, -9.6, 0.5, 500, 7180399, 4.0, 4.0, 0.069813, 14.221083, 217, 47, 0, 0, 12.650287, 0, 7185746, -9.6, 3000
0, 0, 0.5, 1, 1, 0, SS03.asc, 565, 0, -9.6, -9.6, 0, 6.0, 10.298119, 50, 0, 0.261799, 357, 500, 0, -9.6, 0.5, 500, 7188103, 4.0, 4.0, 0.069813, 14.22511, 218, 47, 0, 0, 12.654314, 1, 7192940, -9.6, 3000
0, 0, 0.5, 0, 1, 0, SS03.asc, 457, 0, -9.6, -9.6, 1, 6.0, 8.804743, 50, 0, -0.523599, 266, 500, 1, -9.6, 0.5, 500, 7193980, 4.0, 4.0, 0.034907, 12.731734, 219, 122, 0, 1, 12.731734, 0, 7198710, -9.6, 3000
0, 0, 0.5, 0, 0, 0, SS03.asc, 407, 0, -9.6, -9.6, 0, 6.0, 12.008176, 50, 0, 0.261799, 54, 500, 0, -9.6, 0.5, 500, 7200147, 4.0, 4.0, 0.034907, 14.364371, 220, 47, 0, 1, 14.364371, 1, 7204827, -9.6, 3000
0, 0, 0.5, 1, 0, 0, SS03.asc, 475, 0, -9.6, -9.6, 1, 6.0, 11.698111, 50, 0, -0.523599, 238, 500, 1, -9.6, 0.5, 500, 7205867, 4.0, 4.0, 0.069813, 14.054305, 221, 122, 0, 0, 15.625102, 0, 7210613, -9.6, 3000
0, 0, 0.5, 0, 0, 0, SS03.asc, 612, 0, -9.6, -9.6, 0, 6.0, 6.54071, 50, 0, -0.523599, 270, 500, 1, -9.6, 0.5, 500, 7211653, 4.0, 4.0, -0.10472, 8.896905, 222, 47, 0, 1, 8.896905, 1, 7216537, -9.6, 3000
0, 0, 0.5, 0, 1, 0, SS03.asc, 515, 0, -9.6, -9.6, 1, 6.0, 6.670527, 50, 0, -0.261799, 40, 500, 1, -9.6, 0.5, 500, 7217867, 4.0, 4.0, 0.069813, 10.597518, 223, 122, 0, 1, 10.597518, 0, 7222654, -9.6, 3000
0, 0, 0.5, 0, 0, 0, SS03.asc, 452, 0, -9.6, -9.6, 0, 6.0, 11.74509, 50, 0, -0.261799, 198, 500, 1, -9.6, 0.5, 500, 7224662, 4.0, 4.0, 0.034907, 14.101285, 224, 122, 0, 1, 14.101285, 0, 7229386, -9.6, 3000
1, 0, 0.5, 0, 1, 0, SS03.asc, 689, 0, -9.6, -9.6, 0, 6.0, 11.840009, 50, 0, -0.523599, 285, 500, 1, -9.6, 0.5, 500, 7230426, 4.0, 4.0, 0.069813, 15.766999, 225, 122, 0, 0, 14.196203, 0, 7235387, -9.6, 3000
0, 0, 0.5, 0, 0, 0, SS03.asc, 419, 0, -9.6, -9.6, 0, 6.0, 6.539943, 50, 0, -0.261799, 318, 500, 0, -9.6, 0.5, 500, 7236427, 4.0, 4.0, -0.069813, 8.896138, 226, 122, 0, 1, 8.896138, 1, 7241119, -9.6, 3000
0, 0, 0.5, 1, 0, 0, SS03.asc, 496, 0, -9.6, -9.6, 1, 6.0, 8.592855, 50, 0, 0.523599, 93, 500, 1, -9.6, 0.5, 500, 7242159, 4.0, 4.0, 0.069813, 10.94905, 227, 122, 0, 0, 12.519847, 1, 7246927, -9.6, 3000
0, 0, 0.5, 0, 1, 0, SS03.asc, 584, 0, -9.6, -9.6, 1, 6.0, 9.657662, 50, 0, 0.261799, 192, 500, 0, -9.6, 0.5, 500, 7248303, 4.0, 4.0, 0.034907, 13.584654, 228, 47, 0, 1, 13.584654, 1, 7253159, -9.6, 3000
1, 0, 0.5, 0, 1, 0, SS03.asc, 537, 0, -9.6, -9.6, 0, 6.0, 12.460906, 50, 0, 0.523599, 235, 500, 1, -9.6, 0.5, 500, 7254198, 4.0, 4.0, -0.10472, 16.387897, 229, 47, 0, 0, 14.817101, 0, 7259006, -9.6, 3000
1, 0, 0.5, 0, 1, 0, SS03.asc, 574, 0, -9.6, -9.6, 0, 6.0, 9.077225, 50, 0, -0.523599, 308, 500, 1, -9.6, 0.5, 500, 7260046, 4.0, 4.0, 0.034907, 13.004216, 230, 122, 0, 0, 11.433419, 0, 7264892, -9.6, 3000
0, 0, 0.5, 0, 1, 0, SS03.asc, 574, 0, -9.6, -9.6, 1, 6.0, 8.984608, 50, 0, -0.261799, 129, 500, 0, -9.6, 0.5, 500, 7265933, 4.0, 4.0, -0.10472, 12.911599, 231, 122, 0, 1, 12.911599, 1, 7270779, -9.6, 3000
1, 0, 0.5, 0, 0, 0, SS03.asc, 461, 0, -9.6, -9.6, 1, 6.0, 8.658435, 50, 0, 0.261799, 204, 500, 1, -9.6, 0.5, 500, 7271817, 4.0, 4.0, 0.10472, 11.01463, 232, 122, 0, 0, 12.585426, 1, 7276549, -9.6, 3000
1, 0, 0.5, 0, 1, 0, SS03.asc, 406, 0, -9.6, -9.6, 0, 6.0, 9.054406, 50, 0, -0.523599, 366, 500, 1, -9.6, 0.5, 500, 7277872, 4.0, 4.0, 0.034907, 12.981397, 233, 122, 0, 0, 11.410601, 0, 7282550, -9.6, 3000
1, 0, 0.5, 0, 0, 0, SS03.asc, 768, 0, -9.6, -9.6, 1, 6.0, 9.38288, 50, 0, 0.523599, 166, 500, 0, -9.6, 0.5, 500, 7283590, 4.0, 4.0, -0.10472, 11.739075, 234, 122, 0, 0, 13.309871, 0, 7288629, -9.6, 3000
1, 0, 0.5, 0, 1, 0, SS03.asc, 522, 0, -9.6, -9.6, 0, 6.0, 6.676088, 50, 0, -0.523599, 115, 500, 1, -9.6, 0.5, 500, 7289668, 4.0, 4.0, -0.10472, 10.603079, 235, 47, 0, 0, 9.032283, 1, 7294477, -9.6, 3000
0, 0, 0.5, 0, 0, 0, SS03.asc, 765, 0, -9.6, -9.6, 0, 6.0, 12.326103, 50, 0, 0.261799, 29, 500, 0, -9.6, 0.5, 500, 7295517, 4.0, 4.0, 0.034907, 14.682298, 236, 47, 0, 1, 14.682298, 1, 7300555, -9.6, 3000
0, 0, 0.5, 0, 1, 0, SS03.asc, 719, 0, -9.6, -9.6, 1, 6.0, 6.781361, 50, 0, -0.523599, 46, 500, 0, -9.6, 0.5, 500, 7301595, 4.0, 4.0, -0.034907, 10.708352, 237, 122, 0, 1, 10.708352, 1, 7306596, -9.6, 3000
0, 0, 0.5, 0, 0, 0, SS03.asc, 464, 0, -9.6, -9.6, 0, 6.0, 9.454787, 50, 0, 0.523599, 183, 500, 1, -9.6, 0.5, 500, 7307823, 4.0, 4.0, 0.10472, 11.810982, 238, 122, 0, 1, 11.810982, 1, 7312559, -9.6, 3000
1, 0, 0.5, 0, 0, 0, SS03.asc, 460, 0, -9.6, -9.6, 1, 6.0, 6.621439, 50, 0, 0.523599, 179, 500, 1, -9.6, 0.5, 500, 7313597, 4.0, 4.0, -0.069813, 8.977633, 239, 47, 0, 0, 10.548429, 0, 7318329, -9.6, 3000
1, 0, 0.5, 0, 0, 0, SS03.asc, 459, 0, -9.6, -9.6, 1, 6.0, 7.062855, 50, 0, -0.523599, 132, 500, 1, -9.6, 0.5, 500, 7319368, 4.0, 4.0, -0.069813, 9.419049, 240, 47, 0, 0, 10.989846, 1, 7324100, -9.6, 3000
1, 0, 0.5, 0, 0, 0, SS03.asc, 652, 0, -9.6, -9.6, 1, 6.0, 6.914246, 50, 0, -0.523599, 146, 500, 1, -9.6, 0.5, 500, 7325139, 4.0, 4.0, 0.034907, 9.27044, 241, 122, 0, 0, 10.841237, 0, 7330063, -9.6, 3000
1, 0, 0.5, 0, 1, 0, SS03.asc, 615, 0, -9.6, -9.6, 0, 6.0, 6.860939, 50, 0, 0.261799, 60, 500, 0, -9.6, 0.5, 500, 7331117, 4.0, 4.0, 0.069813, 10.78793, 242, 47, 0, 0, 9.217133, 1, 7336004, -9.6, 3000
1, 0, 0.5, 0, 1, 0, SS03.asc, 423, 0, -9.6, -9.6, 0, 6.0, 8.85901, 50, 0, -0.523599, 375, 500, 0, -9.6, 0.5, 500, 7337041, 4.0, 4.0, -0.069813, 12.786, 243, 122, 0, 0, 11.215204, 1, 7341736, -9.6, 3000
0, 0, 0.5, 0, 1, 0, SS03.asc, 573, 0, -9.6, -9.6, 1, 6.0, 12.037706, 50, 0, -0.523599, 140, 500, 0, -9.6, 0.5, 500, 7342776, 4.0, 4.0, 0.10472, 15.964697, 244, 47, 0, 1, 15.964697, 0, 7347621, -9.6, 3000
1, 0, 0.5, 0, 0, 0, SS03.asc, 484, 0, -9.6, -9.6, 1, 6.0, 9.464759, 50, 0, 0.261799, 373, 500, 1, -9.6, 0.5, 500, 7348827, 4.0, 4.0, -0.069813, 11.820953, 245, 47, 0, 0, 13.391749, 0, 7353584, -9.6, 3000
1, 0, 0.5, 0, 0, 0, SS03.asc, 497, 0, -9.6, -9.6, 1, 6.0, 9.090456, 50, 0, 0.261799, 258, 500, 0, -9.6, 0.5, 500, 7354624, 4.0, 4.0, 0.034907, 11.446651, 246, 47, 0, 0, 13.017447, 1, 7359393, -9.6, 3000
0, 0, 0.5, 0, 1, 0, SS03.asc, 539, 0, -9.6, -9.6, 1, 6.0, 11.809711, 50, 0, 0.261799, 274, 500, 1, -9.6, 0.5, 500, 7360430, 4.0, 4.0, -0.034907, 15.736702, 247, 47, 0, 1, 15.736702, 0, 7365240, -9.6, 3000
1, 0, 0.5, 0, 1, 0, SS03.asc, 481, 0, -9.6, -9.6, 0, 6.0, 6.681841, 50, 0, 0.261799, 324, 500, 1, -9.6, 0.5, 500, 7366486, 4.0, 4.0, -0.069813, 10.608831, 248, 47, 0, 0, 9.038035, 0, 7371241, -9.6, 3000
0, 0, 0.5, 0, 0, 0, SS03.asc, 419, 0, -9.6, -9.6, 0, 6.0, 12.557742, 50, 0, 0.523599, 281, 500, 1, -9.6, 0.5, 500, 7372282, 4.0, 4.0, -0.034907, 14.913937, 249, 47, 0, 1, 14.913937, 0, 7376971, -9.6, 3000
0, 0, 0.5, 0, 1, 0, SS03.asc, 582, 0, -9.6, -9.6, 1, 6.0, 9.392851, 50, 0, -0.523599, 314, 500, 1, -9.6, 0.5, 500, 7378237, 4.0, 4.0, 0.069813, 13.319842, 250, 122, 0, 1, 13.319842, 0, 7383089, -9.6, 3000
1, 0, 0.5, 0, 1, 0, SS03.asc, 477, 0, -9.6, -9.6, 0, 6.0, 12.455729, 50, 0, 0.261799, 73, 500, 0, -9.6, 0.5, 500, 7384128, 4.0, 4.0, 0.10472, 16.382719, 251, 47, 0, 0, 14.811923, 1, 7388876, -9.6, 3000
1, 0, 0.5, 0, 1, 0, SS03.asc, 567, 0, -9.6, -9.6, 0, 6.0, 6.797276, 50, 0, -0.261799, 244, 500, 1, -9.6, 0.5, 500, 7389914, 4.0, 4.0, -0.10472, 10.724267, 252, 47, 0, 0, 9.153471, 1, 7394761, -9.6, 3000
0, 0, 0.5, 0, 0, 0, SS03.asc, 501, 0, -9.6, -9.6, 0, 6.0, 9.705217, 50, 0, -0.261799, 168, 500, 1, -9.6, 0.5, 500, 7395799, 4.0, 4.0, 0.069813, 12.061412, 253, 122, 0, 1, 12.061412, 0, 7400571, -9.6, 3000
0, 0, 0.5, 0, 1, 0, SS03.asc, 617, 0, -9.6, -9.6, 1, 6.0, 7.132269, 50, 0, 0.261799, 2, 500, 1, -9.6, 0.5, 500, 7401607, 4.0, 4.0, -0.069813, 11.05926, 254, 47, 0, 1, 11.05926, 0, 7406494, -9.6, 3000
0, 0, 0.5, 1, 0, 0, SS03.asc, 767, 0, -9.6, -9.6, 1, 6.0, 7.075894, 50, 0, 0.261799, 294, 500, 1, -9.6, 0.5, 500, 7407532, 4.0, 4.0, -0.034907, 9.432089, 255, 47, 0, 0, 11.002885, 0, 7412572, -9.6, 3000
1, 0, 0.5, 0, 1, 0, SS03.asc, 452, 0, -9.6, -9.6, 0, 6.0, 8.660928, 50, 0, 0.261799, 264, 500, 1, -9.6, 0.5, 500, 7436508, 4.0, 4.0, 0.069813, 12.587919, 256, 122, 0, 0, 11.017122, 1, 7441232, -9.6, 3000
1, 0, 0.5, 0, 1, 0, SS03.asc, 460, 0, -9.6, -9.6, 0, 6.0, 8.732261, 50, 0, -0.261799, 345, 500, 0, -9.6, 0.5, 500, 7442385, 4.0, 4.0, -0.069813, 12.659251, 257, 122, 0, 0, 11.088455, 1, 7447118, -9.6, 3000
1, 0, 0.5, 0, 1, 0, SS03.asc, 496, 0, -9.6, -9.6, 0, 6.0, 12.420063, 50, 0, 0.261799, 66, 500, 1, -9.6, 0.5, 500, 7448159, 4.0, 4.0, -0.069813, 16.347054, 258, 47, 0, 0, 14.776258, 0, 7452927, -9.6, 3000
0, 0, 0.5, 0, 1, 0, SS03.asc, 419, 0, -9.6, -9.6, 1, 6.0, 12.493696, 50, 0, 0.261799, 80, 500, 1, -9.6, 0.5, 500, 7453968, 4.0, 4.0, -0.10472, 16.420687, 259, 47, 0, 1, 16.420687, 0, 7458659, -9.6, 3000
0, 0, 0.5, 0, 0, 0, SS03.asc, 381, 0, -9.6, -9.6, 0, 6.0, 6.909835, 50, 0, 0.261799, 131, 500, 1, -9.6, 0.5, 500, 7459698, 4.0, 4.0, -0.034907, 9.26603, 260, 47, 0, 1, 9.26603, 0, 7464351, -9.6, 3000
1, 0, 0.5, 0, 0, 0, SS03.asc, 499, 0, -9.6, -9.6, 1, 6.0, 10.078945, 50, 0, -0.261799, 52, 500, 1, -9.6, 0.5, 500, 7465389, 4.0, 4.0, -0.10472, 12.43514, 261, 47, 0, 0, 14.005936, 1, 7470160, -9.6, 3000
0, 0, 0.5, 0, 1, 0, SS03.asc, 498, 0, -9.6, -9.6, 1, 6.0, 9.376168, 50, 0, 0.261799, 321, 500, 0, -9.6, 0.5, 500, 7471198, 4.0, 4.0, 0.034907, 13.30316, 262, 47, 0, 1, 13.30316, 1, 7475969, -9.6, 3000
0, 0, 0.5, 0, 0, 0, SS03.asc, 541, 0, -9.6, -9.6, 0, 6.0, 11.723614, 50, 0, -0.261799, 133, 500, 0, -9.6, 0.5, 500, 7477502, 4.0, 4.0, -0.10472, 14.079809, 263, 122, 0, 1, 14.079809, 1, 7482317, -9.6, 3000
1, 0, 0.5, 0, 1, 0, SS03.asc, 497, 0, -9.6, -9.6, 0, 6.0, 8.832547, 50, 0, 0.523599, 350, 500, 1, -9.6, 0.5, 500, 7483356, 4.0, 4.0, 0.069813, 12.759539, 264, 122, 0, 0, 11.188742, 1, 7488125, -9.6, 3000
0, 0, 0.5, 0, 0, 0, SS03.asc, 537, 0, -9.6, -9.6, 0, 6.0, 12.43617, 50, 0, -0.261799, 312, 500, 1, -9.6, 0.5, 500, 7489164, 4.0, 4.0, 0.034907, 14.792364, 265, 122, 0, 1, 14.792364, 0, 7493973, -9.6, 3000
1, 0, 0.5, 0, 0, 0, SS03.asc, 615, 0, -9.6, -9.6, 1, 6.0, 6.433328, 50, 0, 0.523599, 256, 500, 1, -9.6, 0.5, 500, 7495011, 4.0, 4.0, 0.10472, 8.789523, 266, 122, 0, 0, 10.360319, 1, 7499896, -9.6, 3000
0, 0, 0.5, 0, 1, 0, SS03.asc, 613, 0, -9.6, -9.6, 1, 6.0, 9.427175, 50, 0, 0.523599, 253, 500, 0, -9.6, 0.5, 500, 7500935, 4.0, 4.0, 0.069813, 13.354166, 267, 47, 0, 1, 13.354166, 1, 7505820, -9.6, 3000
1, 0, 0.5, 0, 1, 0, SS03.asc, 498, 0, -9.6, -9.6, 0, 6.0, 9.467252, 50, 0, 0.261799, 228, 500, 1, -9.6, 0.5, 500, 7506859, 4.0, 4.0, -0.10472, 13.394242, 268, 47, 0, 0, 11.823446, 0, 7511675, -9.6, 3000
0, 0, 0.5, 0, 0, 0, SS03.asc, 722, 0, -9.6, -9.6, 0, 6.0, 6.810316, 50, 0, -0.261799, 340, 500, 1, -9.6, 0.5, 500, 7512714, 4.0, 4.0, -0.069813, 9.16651, 269, 47, 0, 1, 9.16651, 1, 7517707, -9.6, 3000
1, 0, 0.5, 0, 1, 0, SS03.asc, 654, 0, -9.6, -9.6, 0, 6.0, 8.676652, 50, 0, 0.523599, 369, 500, 1, -9.6, 0.5, 500, 7518744, 4.0, 4.0, 0.10472, 12.603642, 270, 122, 0, 0, 11.032846, 1, 7523670, -9.6, 3000
0, 0, 0.5, 0, 0, 0, SS03.asc, 664, 0, -9.6, -9.6, 0, 6.0, 8.945682, 50, 0, -0.523599, 248, 500, 1, -9.6, 0.5, 500, 7524929, 4.0, 4.0, -0.069813, 11.301876, 271, 47, 0, 1, 11.301876, 1, 7529864, -9.6, 3000
0, 0, 0.5, 0, 1, 0, SS03.asc, 458, 0, -9.6, -9.6, 1, 6.0, 6.452887, 50, 0, 0.261799, 341, 500, 1, -9.6, 0.5, 500, 7530902, 4.0, 4.0, -0.10472, 10.379878, 272, 47, 0, 1, 10.379878, 0, 7535633, -9.6, 3000
0, 0, 0.5, 0, 1, 0, SS03.asc, 425, 0, -9.6, -9.6, 1, 6.0, 9.334366, 50, 0, 0.523599, 241, 500, 1, -9.6, 0.5, 500, 7536669, 4.0, 4.0, -0.034907, 13.261357, 273, 47, 0, 1, 13.261357, 0, 7541365, -9.6, 3000
1, 0, 0.5, 0, 0, 0, SS03.asc, 539, 0, -9.6, -9.6, 1, 6.0, 9.784986, 50, 0, -0.523599, 89, 500, 1, -9.6, 0.5, 500, 7542402, 4.0, 4.0, -0.069813, 12.141181, 274, 47, 0, 0, 13.711978, 1, 7547213, -9.6, 3000
0, 0, 0.5, 0, 0, 0, SS03.asc, 500, 0, -9.6, -9.6, 0, 6.0, 12.20645, 50, 0, -0.261799, 152, 500, 1, -9.6, 0.5, 500, 7548250, 4.0, 4.0, -0.10472, 14.562644, 275, 47, 0, 1, 14.562644, 1, 7553022, -9.6, 3000
0, 0, 0.5, 0, 0, 0, SS03.asc, 578, 0, -9.6, -9.6, 0, 6.0, 8.740314, 50, 0, -0.261799, 193, 500, 1, -9.6, 0.5, 500, 7554059, 4.0, 4.0, 0.069813, 11.096509, 276, 122, 0, 1, 11.096509, 0, 7558908, -9.6, 3000
0, 0, 0.5, 0, 0, 0, SS03.asc, 573, 0, -9.6, -9.6, 0, 6.0, 10.064179, 50, 0, -0.523599, 269, 500, 1, -9.6, 0.5, 500, 7559949, 4.0, 4.0, 0.069813, 12.420374, 277, 122, 0, 1, 12.420374, 0, 7564793, -9.6, 3000
0, 0, 0.5, 0, 1, 0, SS03.asc, 503, 0, -9.6, -9.6, 1, 6.0, 6.907151, 50, 0, 0.523599, 70, 500, 1, -9.6, 0.5, 500, 7565830, 4.0, 4.0, 0.034907, 10.834142, 278, 122, 0, 1, 10.834142, 1, 7570603, -9.6, 3000
1, 0, 0.5, 0, 1, 0, SS03.asc, 539, 0, -9.6, -9.6, 0, 6.0, 10.053825, 50, 0, -0.523599, 233, 500, 1, -9.6, 0.5, 500, 7571640, 4.0, 4.0, 0.10472, 13.980816, 279, 122, 0, 0, 12.41002, 0, 7576451, -9.6, 3000
0, 0, 0.5, 0, 0, 0, SS03.asc, 663, 0, -9.6, -9.6, 0, 6.0, 9.238681, 50, 0, -0.523599, 56, 500, 0, -9.6, 0.5, 500, 7577811, 4.0, 4.0, -0.034907, 11.594875, 280, 122, 0, 1, 11.594875, 1, 7582761, -9.6, 3000
0, 0, 0.5, 0, 0, 0, SS03.asc, 809, 0, -9.6, -9.6, 0, 6.0, 8.680295, 50, 0, 0.523599, 329, 500, 1, -9.6, 0.5, 500, 7583798, 4.0, 4.0, -0.069813, 11.036489, 281, 47, 0, 1, 11.036489, 0, 7588879, -9.6, 3000
0, 0, 0.5, 0, 1, 0, SS03.asc, 559, 0, -9.6, -9.6, 1, 6.0, 9.844814, 50, 0, 0.523599, 360, 500, 1, -9.6, 0.5, 500, 7589897, 4.0, 4.0, 0.10472, 13.771805, 282, 122, 0, 1, 13.771805, 1, 7594727, -9.6, 3000
1, 0, 0.5, 0, 1, 0, SS03.asc, 462, 0, -9.6, -9.6, 0, 6.0, 6.446559, 50, 0, 0.261799, 39, 500, 1, -9.6, 0.5, 500, 7595765, 4.0, 4.0, -0.034907, 10.37355, 283, 47, 0, 0, 8.802753, 0, 7600497, -9.6, 3000
0, 0, 0.5, 0, 0, 0, SS03.asc, 426, 0, -9.6, -9.6, 0, 6.0, 12.315366, 50, 0, -0.261799, 165, 500, 0, -9.6, 0.5, 500, 7601534, 4.0, 4.0, -0.069813, 14.67156, 284, 122, 0, 1, 14.67156, 1, 7606232, -9.6, 3000
0, 0, 0.5, 0, 0, 0, SS03.asc, 463, 0, -9.6, -9.6, 0, 6.0, 6.446176, 50, 0, 0.261799, 286, 500, 1, -9.6, 0.5, 500, 7607269, 4.0, 4.0, -0.10472, 8.80237, 285, 47, 0, 1, 8.80237, 0, 7612003, -9.6, 3000
1, 0, 0.5, 0, 1, 0, SS03.asc, 516, 0, -9.6, -9.6, 0, 6.0, 9.255172, 50, 0, -0.261799, 6, 500, 1, -9.6, 0.5, 500, 7613041, 4.0, 4.0, -0.034907, 13.182163, 286, 47, 0, 0, 11.611366, 1, 7617829, -9.6, 3000
1, 0, 0.5, 0, 1, 0, SS03.asc, 518, 0, -9.6, -9.6, 0, 6.0, 6.383089, 50, 0, 0.523599, 301, 500, 1, -9.6, 0.5, 500, 7618866, 4.0, 4.0, -0.10472, 10.31008, 287, 47, 0, 0, 8.739284, 0, 7623656, -9.6, 3000
0, 0, 0.5, 0, 0, 0, SS03.asc, 538, 0, -9.6, -9.6, 0, 6.0, 9.589973, 50, 0, 0.523599, 332, 500, 0, -9.6, 0.5, 500, 7624694, 4.0, 4.0, -0.034907, 11.946168, 288, 122, 0, 1, 11.946168, 0, 7629503, -9.6, 3000
0, 0, 0.5, 0, 0, 0, SS03.asc, 502, 0, -9.6, -9.6, 0, 6.0, 8.560641, 50, 0, 0.261799, 287, 500, 1, -9.6, 0.5, 500, 7630540, 4.0, 4.0, 0.034907, 10.916836, 289, 122, 0, 1, 10.916836, 1, 7635314, -9.6, 3000
1, 0, 0.5, 0, 1, 0, SS03.asc, 576, 0, -9.6, -9.6, 0, 6.0, 11.924955, 50, 0, 0.523599, 243, 500, 0, -9.6, 0.5, 500, 7636352, 4.0, 4.0, 0.069813, 15.851946, 290, 47, 0, 0, 14.28115, 1, 7641202, -9.6, 3000
0, 0, 0.5, 0, 1, 0, SS03.asc, 567, 0, -9.6, -9.6, 1, 6.0, 6.934188, 50, 0, 0.523599, 109, 500, 0, -9.6, 0.5, 500, 7642246, 4.0, 4.0, 0.034907, 10.861179, 291, 47, 0, 1, 10.861179, 1, 7647086, -9.6, 3000
0, 0, 0.5, 0, 0, 0, SS03.asc, 769, 0, -9.6, -9.6, 0, 6.0, 12.444032, 50, 0, -0.261799, 27, 500, 1, -9.6, 0.5, 500, 7648123, 4.0, 4.0, -0.034907, 14.800226, 292, 47, 0, 1, 14.800226, 1, 7653164, -9.6, 3000
0, 0, 0.5, 0, 1, 0, SS03.asc, 646, 0, -9.6, -9.6, 1, 6.0, 9.667826, 50, 0, 0.261799, 362, 500, 1, -9.6, 0.5, 500, 7655055, 4.0, 4.0, -0.069813, 13.594816, 293, 47, 0, 1, 13.594816, 0, 7659973, -9.6, 3000
1, 0, 0.5, 0, 0, 0, SS03.asc, 499, 0, -9.6, -9.6, 1, 6.0, 6.331507, 50, 0, 0.523599, 124, 500, 1, -9.6, 0.5, 500, 7661010, 4.0, 4.0, -0.069813, 8.687702, 294, 47, 0, 0, 10.258498, 0, 7665781, -9.6, 3000
0, 0, 0.5, 0, 0, 0, SS03.asc, 525, 0, -9.6, -9.6, 0, 6.0, 10.079137, 50, 0, 0.523599, 295, 500, 0, -9.6, 0.5, 500, 7666832, 4.0, 4.0, 0.034907, 12.435331, 295, 47, 0, 1, 12.435331, 1, 7671628, -9.6, 3000
0, 0, 0.5, 0, 1, 0, SS03.asc, 462, 0, -9.6, -9.6, 1, 6.0, 9.877795, 50, 0, -0.523599, 67, 500, 1, -9.6, 0.5, 500, 7672665, 4.0, 4.0, -0.10472, 13.804787, 296, 47, 0, 1, 13.804787, 1, 7677399, -9.6, 3000
1, 0, 0.5, 0, 0, 0, SS03.asc, 670, 0, -9.6, -9.6, 1, 6.0, 11.966374, 50, 0, 0.261799, 276, 500, 1, -9.6, 0.5, 500, 7678436, 4.0, 4.0, 0.10472, 14.322569, 297, 122, 0, 0, 15.893365, 1, 7683378, -9.6, 3000
1, 0, 0.5, 0, 1, 0, SS03.asc, 538, 0, -9.6, -9.6, 0, 6.0, 12.427924, 50, 0, -0.261799, 100, 500, 1, -9.6, 0.5, 500, 7684417, 4.0, 4.0, -0.069813, 16.354916, 298, 47, 0, 0, 14.78412, 1, 7689226, -9.6, 3000
1, 0, 0.5, 0, 0, 0, SS03.asc, 691, 0, -9.6, -9.6, 1, 6.0, 10.100229, 50, 0, 0.523599, 310, 500, 1, -9.6, 0.5, 500, 7690264, 4.0, 4.0, 0.10472, 12.456424, 299, 122, 0, 0, 14.027221, 1, 7695226, -9.6, 3000
1, 0, 0.5, 0, 0, 0, SS03.asc, 539, 0, -9.6, -9.6, 1, 6.0, 9.464759, 50, 0, -0.261799, 88, 500, 1, -9.6, 0.5, 500, 7696264, 4.0, 4.0, 0.10472, 11.820953, 300, 122, 0, 0, 13.391749, 0, 7701073, -9.6, 3000
0, 0, 0.5, 0, 0, 0, SS03.asc, 500, 0, -9.6, -9.6, 0, 6.0, 9.90119, 50, 0, -0.523599, 317, 500, 1, -9.6, 0.5, 500, 7702110, 4.0, 4.0, 0.10472, 12.257384, 301, 122, 0, 1, 12.257384, 0, 7706882, -9.6, 3000
1, 0, 0.5, 0, 0, 0, SS03.asc, 539, 0, -9.6, -9.6, 1, 6.0, 10.079904, 50, 0, 0.261799, 251, 500, 1, -9.6, 0.5, 500, 7707919, 4.0, 4.0, -0.034907, 12.436098, 302, 47, 0, 0, 14.006894, 0, 7712730, -9.6, 3000
0, 0, 0.5, 0, 0, 0, SS03.asc, 1424, 0, -9.6, -9.6, 0, 6.0, 11.772128, 50, 0, 0.523599, 229, 500, 1, -9.6, 0.5, 500, 7713767, 4.0, 4.0, 0.069813, 14.128323, 303, 122, 0, 1, 14.128323, 1, 7719462, -9.6, 3000
1, 0, 0.5, 0, 0, 0, SS03.asc, 697, 0, -9.6, -9.6, 1, 6.0, 9.899272, 50, 0, -0.523599, 157, 500, 1, -9.6, 0.5, 500, 7720508, 4.0, 4.0, -0.10472, 12.255466, 304, 47, 0, 0, 13.826262, 1, 7725489, -9.6, 3000
1, 0, 0.5, 0, 1, 0, SS03.asc, 682, 0, -9.6, -9.6, 0, 6.0, 9.456513, 50, 0, -0.261799, 304, 500, 1, -9.6, 0.5, 500, 7726526, 4.0, 4.0, -0.10472, 13.383504, 305, 47, 0, 0, 11.812708, 1, 7731481, -9.6, 3000
1, 0, 0.5, 0, 0, 0, SS03.asc, 767, 0, -9.6, -9.6, 1, 6.0, 8.94223, 50, 0, 0.261799, 320, 500, 1, -9.6, 0.5, 500, 7732518, 4.0, 4.0, -0.069813, 11.298425, 306, 47, 0, 0, 12.869222, 0, 7737558, -9.6, 3000
0, 0, 0.5, 0, 0, 0, SS03.asc, 497, 0, -9.6, -9.6, 0, 6.0, 8.743958, 50, 0, 0.523599, 10, 500, 1, -9.6, 0.5, 500, 7738597, 4.0, 4.0, -0.10472, 11.100152, 307, 47, 0, 1, 11.100152, 0, 7743367, -9.6, 3000
1, 0, 0.5, 0, 1, 0, SS03.asc, 497, 0, -9.6, -9.6, 0, 6.0, 6.610508, 50, 0, -0.261799, 190, 500, 1, -9.6, 0.5, 500, 7744406, 4.0, 4.0, 0.069813, 10.537499, 308, 122, 0, 0, 8.966703, 0, 7749176, -9.6, 3000
0, 0, 0.5, 0, 1, 0, SS03.asc, 807, 0, -9.6, -9.6, 1, 6.0, 9.485851, 50, 0, 0.261799, 358, 500, 1, -9.6, 0.5, 500, 7750214, 4.0, 4.0, -0.069813, 13.412843, 309, 47, 0, 1, 13.412843, 0, 7755293, -9.6, 3000
1, 0, 0.5, 0, 0, 0, SS03.asc, 622, 0, -9.6, -9.6, 1, 6.0, 8.65786, 50, 0, 0.261799, 226, 500, 1, -9.6, 0.5, 500, 7756977, 4.0, 4.0, 0.10472, 11.014054, 310, 122, 0, 0, 12.584851, 1, 7761871, -9.6, 3000
0, 0, 0.5, 0, 0, 0, SS03.asc, 540, 0, -9.6, -9.6, 0, 6.0, 12.312105, 50, 0, -0.523599, 236, 500, 1, -9.6, 0.5, 500, 7762907, 4.0, 4.0, 0.10472, 14.6683, 311, 122, 0, 1, 14.6683, 0, 7767769, -9.6, 3000
0, 0, 0.5, 0, 0, 0, SS03.asc, 1172, 0, -9.6, -9.6, 0, 6.0, 7.028147, 50, 0, -0.523599, 167, 500, 1, -9.6, 0.5, 500, 7769239, 4.0, 4.0, 0.034907, 9.384342, 312, 122, 0, 1, 9.384342, 0, 7774682, -9.6, 3000
0, 0, 0.5, 0, 0, 0, SS03.asc, 450, 0, -9.6, -9.6, 0, 6.0, 9.881631, 50, 0, -0.261799, 331, 500, 1, -9.6, 0.5, 500, 7775921, 4.0, 4.0, 0.10472, 12.237825, 313, 122, 0, 1, 12.237825, 0, 7780684, -9.6, 3000
1, 0, 0.5, 0, 0, 0, SS03.asc, 498, 0, -9.6, -9.6, 1, 6.0, 12.149116, 50, 0, -0.261799, 61, 500, 1, -9.6, 0.5, 500, 7781722, 4.0, 4.0, 0.034907, 14.50531, 314, 122, 0, 0, 16.076105, 0, 7786493, -9.6, 3000
0, 0, 0.5, 0, 1, 0, SS03.asc, 610, 0, -9.6, -9.6, 1, 6.0, 6.464584, 50, 0, -0.261799, 64, 500, 1, -9.6, 0.5, 500, 7787727, 4.0, 4.0, -0.069813, 10.391575, 315, 47, 0, 1, 10.391575, 1, 7792609, -9.6, 3000
0, 0, 0.5, 0, 1, 0, SS03.asc, 499, 0, -9.6, -9.6, 1, 6.0, 9.595151, 50, 0, -0.261799, 330, 500, 0, -9.6, 0.5, 500, 7793648, 4.0, 4.0, -0.10472, 13.522141, 316, 122, 0, 1, 13.522141, 1, 7798418, -9.6, 3000
1, 0, 0.5, 0, 0, 0, SS03.asc, 462, 0, -9.6, -9.6, 1, 6.0, 12.373658, 50, 0, 0.523599, 338, 500, 1, -9.6, 0.5, 500, 7799455, 4.0, 4.0, 0.034907, 14.729853, 317, 122, 0, 0, 16.30065, 1, 7804189, -9.6, 3000
0, 0, 0.5, 0, 1, 0, SS03.asc, 460, 0, -9.6, -9.6, 1, 6.0, 6.685292, 50, 0, 0.523599, 7, 500, 1, -9.6, 0.5, 500, 7805227, 4.0, 4.0, -0.10472, 10.612283, 318, 47, 0, 1, 10.612283, 0, 7809962, -9.6, 3000
1, 0, 0.5, 0, 1, 0, SS03.asc, 494, 0, -9.6, -9.6, 0, 6.0, 6.395361, 50, 0, -0.261799, 48, 500, 0, -9.6, 0.5, 500, 7810981, 4.0, 4.0, 0.034907, 10.322352, 319, 47, 0, 0, 8.751555, 0, 7815746, -9.6, 3000
0, 0, 0.5, 0, 1, 0, SS03.asc, 410, 0, -9.6, -9.6, 1, 6.0, 6.416646, 50, 0, 0.261799, 22, 500, 1, -9.6, 0.5, 500, 7844705, 4.0, 4.0, -0.034907, 10.343637, 320, 47, 0, 1, 10.343637, 0, 7849387, -9.6, 3000
1, 0, 0.5, 0, 1, 0, SS03.asc, 699, 0, -9.6, -9.6, 0, 6.0, 9.124588, 50, 0, 0.523599, 323, 500, 1, -9.6, 0.5, 500, 7852610, 4.0, 4.0, -0.069813, 13.051579, 321, 47, 0, 0, 11.480783, 0, 7857582, -9.6, 3000
1, 0, 0.5, 0, 1, 0, SS03.asc, 460, 0, -9.6, -9.6, 0, 6.0, 7.014533, 50, 0, 0.523599, 24, 500, 1, -9.6, 0.5, 500, 7858620, 4.0, 4.0, -0.034907, 10.941524, 322, 47, 0, 0, 9.370728, 0, 7863353, -9.6, 3000
0, 0, 0.5, 0, 1, 0, SS03.asc, 503, 0, -9.6, -9.6, 1, 6.0, 12.37059, 50, 0, -0.261799, 186, 500, 1, -9.6, 0.5, 500, 7864888, 4.0, 4.0, 0.034907, 16.297581, 323, 122, 0, 1, 16.297581, 0, 7869663, -9.6, 3000
0, 0, 0.5, 0, 1, 0, SS03.asc, 499, 0, -9.6, -9.6, 1, 6.0, 9.101769, 50, 0, -0.261799, 57, 500, 1, -9.6, 0.5, 500, 7870701, 4.0, 4.0, -0.10472, 13.02876, 324, 47, 0, 1, 13.02876, 1, 7875471, -9.6, 3000
0, 0, 0.5, 0, 1, 0, SS03.asc, 533, 0, -9.6, -9.6, 1, 6.0, 12.267811, 50, 0, -0.523599, 297, 500, 0, -9.6, 0.5, 500, 7876510, 4.0, 4.0, -0.069813, 16.194801, 325, 122, 0, 1, 16.194801, 1, 7881319, -9.6, 3000
0, 0, 0.5, 0, 1, 0, SS03.asc, 461, 0, -9.6, -9.6, 1, 6.0, 12.338376, 50, 0, 0.523599, 9, 500, 1, -9.6, 0.5, 500, 7882357, 4.0, 4.0, -0.069813, 16.265368, 326, 47, 0, 1, 16.265368, 0, 7887090, -9.6, 3000
0, 0, 0.5, 0, 1, 0, SS03.asc, 808, 0, -9.6, -9.6, 1, 6.0, 11.799932, 50, 0, 0.523599, 81, 500, 1, -9.6, 0.5, 500, 7888128, 4.0, 4.0, 0.069813, 15.726923, 327, 122, 0, 1, 15.726923, 1, 7893208, -9.6, 3000
1, 0, 0.5, 0, 0, 0, SS03.asc, 577, 0, -9.6, -9.6, 1, 6.0, 6.938599, 50, 0, -0.523599, 78, 500, 0, -9.6, 0.5, 500, 7894245, 4.0, 4.0, 0.069813, 9.294793, 328, 47, 0, 0, 10.865589, 0, 7899094, -9.6, 3000
1, 0, 0.5, 0, 1, 0, SS03.asc, 614, 0, -9.6, -9.6, 0, 6.0, 11.979605, 50, 0, -0.261799, 45, 500, 0, -9.6, 0.5, 500, 7900132, 4.0, 4.0, -0.034907, 15.906596, 329, 122, 0, 0, 14.335799, 1, 7905018, -9.6, 3000
1, 0, 0.5, 0, 0, 0, SS03.asc, 615, 0, -9.6, -9.6, 1, 6.0, 12.275097, 50, 0, -0.261799, 370, 500, 0, -9.6, 0.5, 500, 7906057, 4.0, 4.0, -0.034907, 14.631291, 330, 122, 0, 0, 16.202087, 1, 7910943, -9.6, 3000
0, 0, 0.5, 1, 0, 0, SS03.asc, 764, 0, -9.6, -9.6, 1, 6.0, 8.603786, 50, 0, -0.261799, 379, 500, 1, -9.6, 0.5, 500, 7911981, 4.0, 4.0, 0.10472, 10.95998, 331, 122, 0, 0, 12.530776, 0, 7917022, -9.6, 3000
1, 0, 0.5, 0, 0, 0, SS03.asc, 422, 0, -9.6, -9.6, 1, 6.0, 7.018176, 50, 0, 0.523599, 201, 500, 1, -9.6, 0.5, 500, 7918061, 4.0, 4.0, -0.10472, 9.374371, 332, 47, 0, 0, 10.945168, 0, 7922754, -9.6, 3000
0, 0, 0.5, 1, 1, 0, SS03.asc, 595, 0, -9.6, -9.6, 0, 6.0, 10.225445, 50, 0, -0.261799, 180, 500, 1, -9.6, 0.5, 500, 7923791, 4.0, 4.0, -0.10472, 14.152435, 333, 47, 0, 0, 12.581639, 1, 7928658, -9.6, 3000
0, 0, 0.5, 1, 1, 0, SS03.asc, 639, 0, -9.6, -9.6, 0, 6.0, 7.111944, 50, 0, 0.523599, 184, 500, 1, -9.6, 0.5, 500, 7930018, 4.0, 4.0, -0.069813, 11.038935, 334, 47, 0, 0, 9.468139, 0, 7934928, -9.6, 3000
0, 0, 0.5, 0, 1, 0, SS03.asc, 498, 0, -9.6, -9.6, 1, 6.0, 6.373693, 50, 0, -0.523599, 68, 500, 1, -9.6, 0.5, 500, 7935966, 4.0, 4.0, -0.069813, 10.300684, 335, 47, 0, 1, 10.300684, 1, 7940736, -9.6, 3000
0, 0, 0.5, 0, 1, 0, SS03.asc, 616, 0, -9.6, -9.6, 1, 6.0, 8.635041, 50, 0, 0.261799, 114, 500, 1, -9.6, 0.5, 500, 7941774, 4.0, 4.0, 0.069813, 12.562033, 336, 122, 0, 1, 12.562033, 1, 7946661, -9.6, 3000
0, 0, 0.5, 0, 1, 0, SS03.asc, 442, 0, -9.6, -9.6, 1, 6.0, 12.118435, 50, 0, -0.261799, 291, 500, 0, -9.6, 0.5, 500, 7947718, 4.0, 4.0, -0.034907, 16.045425, 337, 122, 0, 1, 16.045425, 1, 7952431, -9.6, 3000
0, 0, 0.5, 0, 1, 0, SS03.asc, 519, 0, -9.6, -9.6, 1, 6.0, 11.851322, 50, 0, 0.523599, 368, 500, 1, -9.6, 0.5, 500, 7953449, 4.0, 4.0, -0.069813, 15.778313, 338, 47, 0, 1, 15.778313, 0, 7958240, -9.6, 3000
1, 0, 0.5, 0, 1, 0, SS03.asc, 615, 0, -9.6, -9.6, 0, 6.0, 9.473963, 50, 0, -0.523599, 43, 500, 1, -9.6, 0.5, 500, 7959278, 4.0, 4.0, 0.10472, 13.400953, 339, 122, 0, 0, 11.830157, 0, 7964164, -9.6, 3000
0, 0, 0.5, 0, 1, 0, SS03.asc, 768, 0, -9.6, -9.6, 1, 6.0, 12.136459, 50, 0, -0.523599, 342, 500, 1, -9.6, 0.5, 500, 7965203, 4.0, 4.0, -0.10472, 16.06345, 340, 47, 0, 1, 16.06345, 1, 7970242, -9.6, 3000
0, 0, 0.5, 0, 1, 0, SS03.asc, 460, 0, -9.6, -9.6, 1, 6.0, 12.17155, 50, 0, -0.523599, 31, 500, 1, -9.6, 0.5, 500, 7971587, 4.0, 4.0, 0.10472, 16.098541, 341, 122, 0, 1, 16.098541, 0, 7976320, -9.6, 3000
0, 0, 0.5, 0, 1, 0, SS03.asc, 419, 0, -9.6, -9.6, 1, 6.0, 6.645983, 50, 0, 0.523599, 213, 500, 0, -9.6, 0.5, 500, 7977359, 4.0, 4.0, 0.034907, 10.572974, 342, 47, 0, 1, 10.572974, 1, 7982052, -9.6, 3000
0, 0, 0.5, 0, 1, 0, SS03.asc, 515, 0, -9.6, -9.6, 1, 6.0, 9.714038, 50, 0, 0.261799, 164, 500, 0, -9.6, 0.5, 500, 7983496, 4.0, 4.0, 0.10472, 13.641029, 343, 47, 0, 1, 13.641029, 1, 7988284, -9.6, 3000
1, 0, 0.5, 0, 0, 0, SS03.asc, 585, 0, -9.6, -9.6, 1, 6.0, 9.36869, 50, 0, 0.261799, 191, 500, 0, -9.6, 0.5, 500, 7989598, 4.0, 4.0, 0.034907, 11.724885, 344, 47, 0, 0, 13.295681, 1, 7994456, -9.6, 3000
1, 0, 0.5, 0, 1, 0, SS03.asc, 882, 0, -9.6, -9.6, 0, 6.0, 6.39306, 50, 0, 0.523599, 326, 500, 1, -9.6, 0.5, 500, 7995493, 4.0, 4.0, 0.034907, 10.320051, 345, 122, 0, 0, 8.749254, 1, 8000649, -9.6, 3000
0, 0, 0.5, 0, 1, 0, SS03.asc, 617, 0, -9.6, -9.6, 1, 6.0, 10.289874, 50, 0, -0.261799, 378, 500, 1, -9.6, 0.5, 500, 8001686, 4.0, 4.0, -0.034907, 14.216865, 346, 47, 0, 1, 14.216865, 1, 8006574, -9.6, 3000
1, 0, 0.5, 0, 0, 0, SS03.asc, 477, 0, -9.6, -9.6, 1, 6.0, 6.821437, 50, 0, 0.261799, 162, 500, 1, -9.6, 0.5, 500, 8007592, 4.0, 4.0, -0.069813, 9.177631, 347, 47, 0, 0, 10.748428, 0, 8012343, -9.6, 3000
0, 0, 0.5, 0, 0, 0, SS03.asc, 499, 0, -9.6, -9.6, 0, 6.0, 7.141474, 50, 0, 0.261799, 353, 500, 1, -9.6, 0.5, 500, 8013381, 4.0, 4.0, -0.10472, 9.497668, 348, 47, 0, 1, 9.497668, 0, 8018152, -9.6, 3000
0, 0, 0.5, 0, 1, 0, SS03.asc, 593, 0, -9.6, -9.6, 1, 6.0, 11.901945, 50, 0, -0.523599, 30, 500, 1, -9.6, 0.5, 500, 8019191, 4.0, 4.0, 0.069813, 15.828936, 349, 122, 0, 1, 15.828936, 0, 8024055, -9.6, 3000
0, 0, 0.5, 0, 1, 0, SS03.asc, 1231, 0, -9.6, -9.6, 1, 6.0, 6.578294, 50, 0, -0.261799, 313, 500, 1, -9.6, 0.5, 500, 8025093, 4.0, 4.0, -0.069813, 10.505284, 350, 47, 0, 1, 10.505284, 1, 8030595, -9.6, 3000
1, 0, 0.5, 0, 0, 0, SS03.asc, 465, 0, -9.6, -9.6, 1, 6.0, 12.392067, 50, 0, 0.261799, 21, 500, 1, -9.6, 0.5, 500, 8031667, 4.0, 4.0, -0.034907, 14.748261, 351, 47, 0, 0, 16.319057, 0, 8036404, -9.6, 3000
1, 0, 0.5, 0, 1, 0, SS03.asc, 717, 0, -9.6, -9.6, 0, 6.0, 6.415303, 50, 0, 0.261799, 147, 500, 1, -9.6, 0.5, 500, 8037801, 4.0, 4.0, 0.10472, 10.342295, 352, 122, 0, 0, 8.771498, 1, 8042790, -9.6, 3000
1, 0, 0.5, 0, 0, 0, SS03.asc, 652, 0, -9.6, -9.6, 1, 6.0, 10.002051, 50, 0, -0.261799, 145, 500, 1, -9.6, 0.5, 500, 8043828, 4.0, 4.0, 0.034907, 12.358246, 353, 122, 0, 0, 13.929043, 0, 8048752, -9.6, 3000
1, 0, 0.5, 0, 1, 0, SS03.asc, 597, 0, -9.6, -9.6, 0, 6.0, 8.928041, 50, 0, -0.261799, 334, 500, 0, -9.6, 0.5, 500, 8049793, 4.0, 4.0, -0.034907, 12.855032, 354, 122, 0, 0, 11.284235, 1, 8054676, -9.6, 3000
0, 0, 0.5, 0, 1, 0, SS03.asc, 536, 0, -9.6, -9.6, 1, 6.0, 10.225636, 50, 0, 0.261799, 126, 500, 1, -9.6, 0.5, 500, 8055716, 4.0, 4.0, 0.034907, 14.152627, 355, 122, 0, 1, 14.152627, 1, 8060523, -9.6, 3000
0, 0, 0.5, 0, 0, 0, SS03.asc, 459, 0, -9.6, -9.6, 0, 6.0, 11.865895, 50, 0, 0.261799, 36, 500, 1, -9.6, 0.5, 500, 8061561, 4.0, 4.0, -0.10472, 14.22209, 356, 47, 0, 1, 14.22209, 0, 8066294, -9.6, 3000
1, 0, 0.5, 0, 1, 0, SS03.asc, 729, 0, -9.6, -9.6, 0, 6.0, 12.460331, 50, 0, -0.261799, 38, 500, 1, -9.6, 0.5, 500, 8067332, 4.0, 4.0, -0.069813, 16.387321, 357, 47, 0, 0, 14.816525, 1, 8072334, -9.6, 3000
0, 0, 0.5, 0, 1, 0, SS03.asc, 537, 0, -9.6, -9.6, 1, 6.0, 6.413769, 50, 0, -0.261799, 16, 500, 1, -9.6, 0.5, 500, 8073372, 4.0, 4.0, 0.10472, 10.34076, 358, 122, 0, 1, 10.34076, 0, 8078180, -9.6, 3000
0, 0, 0.5, 0, 1, 0, SS03.asc, 499, 0, -9.6, -9.6, 1, 6.0, 9.924583, 50, 0, -0.523599, 127, 500, 1, -9.6, 0.5, 500, 8079218, 4.0, 4.0, -0.10472, 13.851574, 359, 47, 0, 1, 13.851574, 1, 8083989, -9.6, 3000
0, 0, 0.5, 0, 1, 0, SS03.asc, 634, 0, -9.6, -9.6, 1, 6.0, 9.293139, 50, 0, 0.261799, 203, 500, 1, -9.6, 0.5, 500, 8085008, 4.0, 4.0, 0.10472, 13.22013, 360, 122, 0, 1, 13.22013, 1, 8089913, -9.6, 3000
0, 0, 0.5, 0, 0, 0, SS03.asc, 499, 0, -9.6, -9.6, 0, 6.0, 9.357377, 50, 0, 0.523599, 155, 500, 1, -9.6, 0.5, 500, 8090951, 4.0, 4.0, -0.069813, 11.713572, 361, 47, 0, 1, 11.713572, 0, 8095722, -9.6, 3000
1, 0, 0.5, 0, 0, 0, SS03.asc, 457, 0, -9.6, -9.6, 1, 6.0, 12.014121, 50, 0, -0.523599, 322, 500, 1, -9.6, 0.5, 500, 8096764, 4.0, 4.0, 0.069813, 14.370316, 362, 122, 0, 0, 15.941112, 0, 8101493, -9.6, 3000
1, 0, 0.5, 0, 0, 0, SS03.asc, 516, 0, -9.6, -9.6, 1, 6.0, 9.500616, 50, 0, -0.523599, 1, 500, 1, -9.6, 0.5, 500, 8102511, 4.0, 4.0, 0.10472, 11.856811, 363, 122, 0, 0, 13.427608, 0, 8107301, -9.6, 3000
1, 0, 0.5, 0, 1, 0, SS03.asc, 477, 0, -9.6, -9.6, 0, 6.0, 9.156802, 50, 0, -0.523599, 272, 500, 1, -9.6, 0.5, 500, 8108339, 4.0, 4.0, -0.10472, 13.083794, 364, 47, 0, 0, 11.512997, 1, 8113088, -9.6, 3000
1, 0, 0.5, 0, 0, 0, SS03.asc, 615, 0, -9.6, -9.6, 1, 6.0, 12.306544, 50, 0, -0.261799, 188, 500, 1, -9.6, 0.5, 500, 8114126, 4.0, 4.0, -0.069813, 14.662739, 365, 47, 0, 0, 16.233536, 1, 8119013, -9.6, 3000
1, 0, 0.5, 0, 0, 0, SS03.asc, 561, 0, -9.6, -9.6, 1, 6.0, 8.949901, 50, 1, -0.261799, 215, 500, 1, -9.6, 0.5, 500, 8120296, 4.0, 4.0, 0.034907, 11.306095, 366, 122, 0, 0, 12.876891, 0, 8125177, -9.6, 3000
1, 0, 0.5, 0, 0, 0, SS03.asc, 755, 0, -9.6, -9.6, 1, 6.0, 9.148748, 50, 0, -0.261799, 210, 500, 1, -9.6, 0.5, 500, 8126642, 4.0, 4.0, -0.034907, 11.504944, 367, 47, 0, 0, 13.07574, 1, 8131669, -9.6, 3000
1, 0, 0.5, 0, 1, 0, SS03.asc, 536, 0, -9.6, -9.6, 0, 6.0, 8.780966, 50, 0, 0.523599, 47, 500, 0, -9.6, 0.5, 500, 8132708, 4.0, 4.0, -0.069813, 12.707956, 368, 122, 0, 0, 11.13716, 0, 8137517, -9.6, 3000
0, 0, 0.5, 0, 1, 0, SS03.asc, 498, 0, -9.6, -9.6, 1, 6.0, 9.069746, 50, 0, -0.523599, 254, 500, 0, -9.6, 0.5, 500, 8138554, 4.0, 4.0, 0.069813, 12.996737, 369, 47, 0, 1, 12.996737, 0, 8143325, -9.6, 3000
0, 0, 0.5, 0, 1, 0, SS03.asc, 410, 0, -9.6, -9.6, 1, 6.0, 6.972539, 50, 0, 0.523599, 72, 500, 0, -9.6, 0.5, 500, 8144953, 4.0, 4.0, 0.069813, 10.899529, 370, 47, 0, 1, 10.899529, 1, 8149639, -9.6, 3000
1, 0, 0.5, 0, 1, 0, SS03.asc, 685, 0, -9.6, -9.6, 0, 6.0, 10.082013, 50, 0, -0.523599, 218, 500, 1, -9.6, 0.5, 500, 8150678, 4.0, 4.0, 0.10472, 14.009004, 371, 122, 0, 0, 12.438208, 0, 8155635, -9.6, 3000
1, 0, 0.5, 0, 1, 0, SS03.asc, 767, 0, -9.6, -9.6, 0, 6.0, 8.935519, 50, 0, 0.261799, 55, 500, 0, -9.6, 0.5, 500, 8156675, 4.0, 4.0, -0.034907, 12.86251, 372, 122, 0, 0, 11.291714, 0, 8161714, -9.6, 3000
1, 0, 0.5, 0, 0, 0, SS03.asc, 692, 0, -9.6, -9.6, 1, 6.0, 12.088713, 50, 0, -0.261799, 265, 500, 0, -9.6, 0.5, 500, 8162753, 4.0, 4.0, -0.069813, 14.444907, 373, 122, 0, 0, 16.015703, 1, 8167716, -9.6, 3000
1, 0, 0.5, 0, 0, 0, SS03.asc, 462, 0, -9.6, -9.6, 1, 6.0, 10.087191, 50, 0, -0.523599, 267, 500, 1, -9.6, 0.5, 500, 8168753, 4.0, 4.0, 0.10472, 12.443385, 374, 122, 0, 0, 14.014181, 0, 8173487, -9.6, 3000
0, 0, 0.5, 0, 1, 0, SS03.asc, 460, 0, -9.6, -9.6, 1, 6.0, 12.259374, 50, 0, -0.523599, 328, 500, 1, -9.6, 0.5, 500, 8174525, 4.0, 4.0, 0.10472, 16.186365, 375, 122, 0, 1, 16.186365, 0, 8179257, -9.6, 3000
1, 0, 0.5, 0, 0, 0, SS03.asc, 539, 0, -9.6, -9.6, 1, 6.0, 9.088155, 50, 0, 0.523599, 26, 500, 1, -9.6, 0.5, 500, 8180294, 4.0, 4.0, 0.10472, 11.444349, 376, 122, 0, 0, 13.015145, 1, 8185105, -9.6, 3000
1, 0, 0.5, 0, 1, 0, SS03.asc, 615, 0, -9.6, -9.6, 0, 6.0, 9.053064, 50, 0, 0.523599, 245, 500, 1, -9.6, 0.5, 500, 8186143, 4.0, 4.0, -0.10472, 12.980055, 377, 47, 0, 0, 11.409259, 0, 8191030, -9.6, 3000
0, 0, 0.5, 0, 0, 0, SS03.asc, 509, 0, -9.6, -9.6, 0, 6.0, 12.112682, 50, 0, -0.523599, 91, 500, 1, -9.6, 0.5, 500, 8192083, 4.0, 4.0, 0.069813, 14.468877, 378, 122, 0, 1, 14.468877, 0, 8196878, -9.6, 3000
1, 0, 0.5, 0, 0, 0, SS03.asc, 416, 0, -9.6, -9.6, 1, 6.0, 6.512331, 50, 0, 0.523599, 118, 500, 1, -9.6, 0.5, 500, 8197915, 4.0, 4.0, -0.069813, 8.868526, 379, 47, 0, 0, 10.439322, 0, 8202610, -9.6, 3000
0, 0, 0.5, 0, 0, 0, SS03.asc, 463, 0, -9.6, -9.6, 0, 6.0, 6.31981, 50, 0, -0.523599, 11, 500, 1, -9.6, 0.5, 500, 8203647, 4.0, 4.0, 0.069813, 8.676004, 380, 122, 0, 1, 8.676004, 0, 8208381, -9.6, 3000
1, 0, 0.5, 0, 0, 0, SS03.asc, 463, 0, -9.6, -9.6, 1, 6.0, 9.893903, 50, 0, -0.261799, 187, 500, 1, -9.6, 0.5, 500, 8209419, 4.0, 4.0, 0.10472, 12.250097, 381, 122, 0, 0, 13.820893, 0, 8214152, -9.6, 3000
0, 0, 0.5, 0, 0, 0, SS03.asc, 688, 0, -9.6, -9.6, 0, 6.0, 12.075866, 50, 0, 0.261799, 273, 500, 0, -9.6, 0.5, 500, 8215193, 4.0, 4.0, 0.069813, 14.43206, 382, 47, 0, 1, 14.43206, 1, 8220153, -9.6, 3000
0, 0, 0.5, 0, 1, 0, SS03.asc, 578, 0, -9.6, -9.6, 1, 6.0, 8.831972, 50, 0, 0.523599, 383, 500, 0, -9.6, 0.5, 500, 8221190, 4.0, 4.0, 0.10472, 12.758963, 383, 47, 0, 1, 12.758963, 1, 8226040, -9.6, 3000
0, 0, 0.5, 0, 1, 0, SS04.asc, 577, 0, -9.6, -9.6, 1, 6.0, 7.053267, 50, 0, 0.523599, 1, 500, 0, -9.6, 0.5, 500, 11962487, 4.0, 4.0, 0.10472, 10.980258, 0, 47, 0, 1, 10.980258, 1, 11967332, -9.6, 3000
0, 0, 0.5, 0, 1, 0, SS04.asc, 468, 0, -9.6, -9.6, 1, 6.0, 8.903112, 50, 0, 0.261799, 67, 500, 1, -9.6, 0.5, 500, 11968596, 4.0, 4.0, -0.069813, 12.830104, 1, 47, 0, 1, 12.830104, 0, 11973333, -9.6, 3000
1, 0, 0.5, 0, 0, 0, SS04.asc, 428, 0, -9.6, -9.6, 1, 6.0, 9.133025, 50, 0, -0.261799, 235, 500, 1, -9.6, 0.5, 500, 11974368, 4.0, 4.0, -0.10472, 11.48922, 2, 47, 0, 0, 13.060016, 1, 11979065, -9.6, 3000
0, 0, 0.5, 0, 0, 0, SS04.asc, 442, 0, -9.6, -9.6, 0, 6.0, 10.046922, 50, 0, 0.523599, 327, 500, 1, -9.6, 0.5, 500, 11980669, 4.0, 4.0, -0.10472, 12.403116, 3, 47, 0, 1, 12.403116, 0, 11985391, -9.6, 3000
0, 0, 0.5, 0, 1, 0, SS04.asc, 581, 0, -9.6, -9.6, 1, 6.0, 6.441957, 50, 0, 0.523599, 348, 500, 1, -9.6, 0.5, 500, 11986426, 4.0, 4.0, 0.069813, 10.368948, 4, 122, 0, 1, 10.368948, 1, 11991276, -9.6, 3000
0, 0, 0.5, 0, 1, 0, SS04.asc, 643, 0, -9.6, -9.6, 1, 6.0, 9.986712, 50, 0, -0.523599, 335, 500, 1, -9.6, 0.5, 500, 11992671, 4.0, 4.0, 0.10472, 13.913702, 5, 122, 0, 1, 13.913702, 0, 11997584, -9.6, 3000
1, 0, 0.5, 0, 0, 0, SS04.asc, 589, 0, -9.6, -9.6, 1, 6.0, 12.502133, 50, 0, -0.523599, 323, 500, 1, -9.6, 0.5, 500, 11999457, 4.0, 4.0, 0.069813, 14.858328, 6, 122, 0, 0, 16.429125, 0, 12004316, -9.6, 3000
1, 0, 0.5, 0, 0, 0, SS04.asc, 854, 0, -9.6, -9.6, 1, 6.0, 6.31655, 50, 0, -0.523599, 297, 500, 1, -9.6, 0.5, 500, 12005577, 4.0, 4.0, 0.10472, 8.672745, 7, 122, 0, 0, 10.243542, 0, 12010701, -9.6, 3000
1, 0, 0.5, 0, 1, 0, SS04.asc, 504, 0, -9.6, -9.6, 0, 6.0, 6.644449, 50, 0, 0.523599, 59, 500, 1, -9.6, 0.5, 500, 12011735, 4.0, 4.0, -0.034907, 10.57144, 8, 47, 0, 0, 9.000644, 0, 12016509, -9.6, 3000
0, 0, 0.5, 0, 0, 0, SS04.asc, 428, 0, -9.6, -9.6, 0, 6.0, 10.031199, 50, 0, 0.261799, 332, 500, 1, -9.6, 0.5, 500, 12017543, 4.0, 4.0, -0.10472, 12.387393, 9, 47, 0, 1, 12.387393, 0, 12022240, -9.6, 3000
1, 0, 0.5, 0, 0, 0, SS04.asc, 654, 0, -9.6, -9.6, 1, 6.0, 9.091414, 50, 0, -0.523599, 158, 500, 1, -9.6, 0.5, 500, 12023277, 4.0, 4.0, -0.034907, 11.447609, 10, 47, 0, 0, 13.018406, 1, 12028202, -9.6, 3000
0, 0, 0.5, 0, 1, 0, SS04.asc, 943, 0, -9.6, -9.6, 1, 6.0, 9.356801, 50, 0, -0.523599, 296, 500, 1, -9.6, 0.5, 500, 12029236, 4.0, 4.0, -0.034907, 13.283792, 11, 47, 0, 1, 13.283792, 1, 12034450, -9.6, 3000
0, 0, 0.5, 0, 1, 0, SS04.asc, 585, 0, -9.6, -9.6, 1, 6.0, 9.595151, 50, 0, -0.261799, 225, 500, 0, -9.6, 0.5, 500, 12035598, 4.0, 4.0, -0.034907, 13.522141, 12, 122, 0, 1, 13.522141, 1, 12040453, -9.6, 3000
0, 0, 0.5, 0, 0, 0, SS04.asc, 639, 0, -9.6, -9.6, 0, 6.0, 11.999547, 50, 0, -0.261799, 311, 500, 1, -9.6, 0.5, 500, 12041848, 4.0, 4.0, 0.10472, 14.355742, 13, 122, 0, 1, 14.355742, 0, 12046763, -9.6, 3000
0, 0, 0.5, 0, 0, 0, SS04.asc, 966, 0, -9.6, -9.6, 0, 6.0, 10.084506, 50, 0, 0.523599, 64, 500, 0, -9.6, 0.5, 500, 12047798, 4.0, 4.0, 0.069813, 12.440701, 14, 47, 0, 1, 12.440701, 1, 12053033, -9.6, 3000
0, 0, 0.5, 0, 0, 0, SS04.asc, 454, 0, -9.6, -9.6, 0, 6.0, 6.657488, 50, 0, 0.261799, 218, 500, 1, -9.6, 0.5, 500, 12054323, 4.0, 4.0, -0.10472, 9.013682, 15, 47, 0, 1, 9.013682, 0, 12059072, -9.6, 3000
0, 0, 0.5, 0, 1, 0, SS04.asc, 563, 0, -9.6, -9.6, 1, 6.0, 8.579817, 50, 0, -0.523599, 201, 500, 1, -9.6, 0.5, 500, 12060625, 4.0, 4.0, -0.10472, 12.506807, 16, 47, 0, 1, 12.506807, 1, 12065457, -9.6, 3000
1, 0, 0.5, 0, 1, 0, SS04.asc, 540, 0, -9.6, -9.6, 0, 6.0, 6.703701, 50, 0, -0.261799, 66, 500, 1, -9.6, 0.5, 500, 12066495, 4.0, 4.0, -0.034907, 10.630692, 17, 47, 0, 0, 9.059896, 1, 12071304, -9.6, 3000
1, 0, 0.5, 0, 1, 0, SS04.asc, 682, 0, -9.6, -9.6, 0, 6.0, 8.65575, 50, 0, -0.261799, 85, 500, 1, -9.6, 0.5, 500, 12072763, 4.0, 4.0, -0.069813, 12.582742, 18, 47, 0, 0, 11.011946, 1, 12077728, -9.6, 3000
0, 0, 0.5, 0, 0, 0, SS04.asc, 406, 0, -9.6, -9.6, 0, 6.0, 6.935722, 50, 0, -0.261799, 269, 500, 1, -9.6, 0.5, 500, 12079654, 4.0, 4.0, 0.069813, 9.291917, 19, 122, 0, 1, 9.291917, 0, 12084344, -9.6, 3000
1, 0, 0.5, 0, 0, 0, SS04.asc, 737, 0, -9.6, -9.6, 1, 6.0, 12.559084, 50, 0, 0.261799, 203, 500, 0, -9.6, 0.5, 500, 12085530, 4.0, 4.0, 0.034907, 14.915278, 20, 47, 0, 0, 16.486074, 1, 12090537, -9.6, 3000
1, 0, 0.5, 0, 1, 0, SS04.asc, 698, 0, -9.6, -9.6, 0, 6.0, 12.338759, 50, 0, -0.261799, 84, 500, 1, -9.6, 0.5, 500, 12091570, 4.0, 4.0, 0.10472, 16.265751, 21, 122, 0, 0, 14.694954, 0, 12096537, -9.6, 3000
0, 0, 0.5, 0, 1, 0, SS04.asc, 539, 0, -9.6, -9.6, 1, 6.0, 10.148359, 50, 0, -0.523599, 286, 500, 1, -9.6, 0.5, 500, 12097575, 4.0, 4.0, 0.034907, 14.075351, 22, 122, 0, 1, 14.075351, 0, 12102383, -9.6, 3000
0, 0, 0.5, 0, 1, 0, SS04.asc, 478, 0, -9.6, -9.6, 1, 6.0, 12.270879, 50, 0, -0.523599, 210, 500, 1, -9.6, 0.5, 500, 12103714, 4.0, 4.0, -0.034907, 16.19787, 23, 47, 0, 1, 16.19787, 1, 12108461, -9.6, 3000
0, 0, 0.5, 0, 1, 0, SS04.asc, 449, 0, -9.6, -9.6, 1, 6.0, 8.694293, 50, 0, 0.261799, 204, 500, 1, -9.6, 0.5, 500, 12109896, 4.0, 4.0, -0.10472, 12.621284, 24, 47, 0, 1, 12.621284, 0, 12114615, -9.6, 3000
1, 0, 0.5, 0, 1, 0, SS04.asc, 603, 0, -9.6, -9.6, 0, 6.0, 12.386889, 50, 0, 0.523599, 2, 500, 0, -9.6, 0.5, 500, 12115936, 4.0, 4.0, 0.034907, 16.313881, 25, 47, 0, 0, 14.743084, 1, 12120808, -9.6, 3000
0, 0, 0.5, 0, 1, 0, SS04.asc, 564, 0, -9.6, -9.6, 1, 6.0, 7.139364, 50, 0, -0.523599, 107, 500, 1, -9.6, 0.5, 500, 12121976, 4.0, 4.0, -0.034907, 11.066356, 26, 47, 0, 1, 11.066356, 1, 12126809, -9.6, 3000
1, 0, 0.5, 0, 0, 0, SS04.asc, 666, 0, -9.6, -9.6, 1, 6.0, 12.512872, 50, 0, 0.261799, 344, 500, 1, -9.6, 0.5, 500, 12128452, 4.0, 4.0, -0.034907, 14.869066, 27, 47, 0, 0, 16.439863, 0, 12133386, -9.6, 3000
1, 0, 0.5, 0, 1, 0, SS04.asc, 720, 0, -9.6, -9.6, 0, 6.0, 8.73667, 50, 0, 0.523599, 363, 500, 1, -9.6, 0.5, 500, 12134937, 4.0, 4.0, -0.069813, 12.663662, 28, 47, 0, 0, 11.092865, 0, 12139926, -9.6, 3000
0, 0, 0.5, 0, 0, 0, SS04.asc, 621, 0, -9.6, -9.6, 0, 6.0, 12.048445, 50, 1, 0.261799, 78, 500, 1, -9.6, 0.5, 500, 12140960, 4.0, 4.0, 0.069813, 14.404639, 29, 122, 0, 1, 14.404639, 1, 12145849, -9.6, 3000
0, 0, 0.5, 0, 0, 0, SS04.asc, 584, 0, -9.6, -9.6, 0, 6.0, 10.19112, 50, 0, -0.523599, 199, 500, 1, -9.6, 0.5, 500, 12146883, 4.0, 4.0, -0.069813, 12.547316, 30, 47, 0, 1, 12.547316, 1, 12151737, -9.6, 3000
1, 0, 0.5, 0, 1, 0, SS04.asc, 470, 0, -9.6, -9.6, 0, 6.0, 12.23061, 50, 0, 0.261799, 268, 500, 1, -9.6, 0.5, 500, 12153113, 4.0, 4.0, -0.069813, 16.1576, 31, 47, 0, 0, 14.586804, 0, 12157853, -9.6, 3000
0, 0, 0.5, 0, 0, 0, SS04.asc, 531, 0, -9.6, -9.6, 0, 6.0, 9.395344, 50, 1, -0.523599, 356, 500, 1, -9.6, 0.5, 500, 12159437, 4.0, 4.0, 0.069813, 11.751538, 32, 122, 0, 1, 11.751538, 0, 12164238, -9.6, 3000
0, 0, 0.5, 0, 0, 0, SS04.asc, 477, 0, -9.6, -9.6, 0, 6.0, 12.3936, 50, 0, 0.523599, 173, 500, 1, -9.6, 0.5, 500, 12166146, 4.0, 4.0, -0.034907, 14.749795, 33, 47, 0, 1, 14.749795, 0, 12170892, -9.6, 3000
0, 0, 0.5, 0, 1, 0, SS04.asc, 461, 0, -9.6, -9.6, 1, 6.0, 7.021245, 50, 0, 0.523599, 280, 500, 1, -9.6, 0.5, 500, 12172199, 4.0, 4.0, 0.10472, 10.948236, 34, 122, 0, 1, 10.948236, 1, 12176931, -9.6, 3000
1, 0, 0.5, 0, 1, 0, SS04.asc, 1006, 0, -9.6, -9.6, 0, 6.0, 10.133019, 50, 0, -0.523599, 372, 500, 1, -9.6, 0.5, 500, 12177965, 4.0, 4.0, 0.034907, 14.06001, 35, 122, 0, 0, 12.489214, 0, 12183239, -9.6, 3000
0, 0, 0.5, 1, 1, 0, SS04.asc, 658, 0, -9.6, -9.6, 0, 6.0, 11.745282, 50, 0, -0.523599, 47, 500, 1, -9.6, 0.5, 500, 12184274, 4.0, 4.0, -0.034907, 15.672274, 36, 47, 0, 0, 14.101477, 1, 12189203, -9.6, 3000
1, 0, 0.5, 0, 0, 0, SS04.asc, 722, 0, -9.6, -9.6, 1, 6.0, 7.020094, 50, 0, -0.261799, 340, 500, 1, -9.6, 0.5, 500, 12190250, 4.0, 4.0, -0.034907, 9.376288, 37, 47, 0, 0, 10.947084, 1, 12195242, -9.6, 3000
1, 0, 0.5, 0, 0, 0, SS04.asc, 611, 0, -9.6, -9.6, 1, 6.0, 9.950662, 50, 0, 0.523599, 220, 500, 1, -9.6, 0.5, 500, 12196276, 4.0, 4.0, 0.069813, 12.306856, 38, 122, 0, 0, 13.877653, 1, 12201166, -9.6, 3000
1, 0, 0.5, 0, 1, 0, SS04.asc, 752, 0, -9.6, -9.6, 0, 6.0, 12.439238, 50, 0, 0.523599, 267, 500, 1, -9.6, 0.5, 500, 12202914, 4.0, 4.0, 0.069813, 16.366228, 39, 122, 0, 0, 14.795433, 1, 12207936, -9.6, 3000
1, 0, 0.5, 0, 0, 0, SS04.asc, 778, 0, -9.6, -9.6, 1, 6.0, 10.082397, 50, 1, 0.261799, 275, 500, 0, -9.6, 0.5, 500, 12209351, 4.0, 4.0, 0.034907, 12.438591, 40, 47, 0, 0, 14.009387, 1, 12214398, -9.6, 3000
0, 0, 0.5, 0, 0, 0, SS04.asc, 735, 0, -9.6, -9.6, 0, 6.0, 8.817207, 50, 0, -0.523599, 238, 500, 1, -9.6, 0.5, 500, 12215472, 4.0, 4.0, 0.034907, 11.173402, 41, 122, 0, 1, 11.173402, 0, 12220476, -9.6, 3000
1, 0, 0.5, 0, 0, 0, SS04.asc, 857, 0, -9.6, -9.6, 1, 6.0, 9.368498, 50, 0, -0.261799, 154, 500, 0, -9.6, 0.5, 500, 12221776, 4.0, 4.0, -0.034907, 11.724693, 42, 122, 0, 0, 13.295489, 1, 12226901, -9.6, 3000
0, 0, 0.5, 0, 0, 0, SS04.asc, 719, 0, -9.6, -9.6, 0, 6.0, 10.290449, 50, 0, -0.261799, 191, 500, 1, -9.6, 0.5, 500, 12228296, 4.0, 4.0, 0.069813, 12.646644, 43, 122, 0, 1, 12.646644, 0, 12233286, -9.6, 3000
1, 0, 0.5, 0, 1, 0, SS04.asc, 543, 0, -9.6, -9.6, 0, 6.0, 8.875692, 50, 0, 0.523599, 24, 500, 1, -9.6, 0.5, 500, 12234321, 4.0, 4.0, -0.10472, 12.802683, 44, 47, 0, 0, 11.231887, 0, 12239134, -9.6, 3000
0, 0, 0.5, 0, 0, 0, SS04.asc, 940, 0, -9.6, -9.6, 0, 6.0, 10.1079, 50, 0, 0.261799, 115, 500, 0, -9.6, 0.5, 500, 12240771, 4.0, 4.0, 0.069813, 12.464094, 45, 47, 0, 1, 12.464094, 1, 12245981, -9.6, 3000
1, 0, 0.5, 0, 0, 0, SS04.asc, 699, 0, -9.6, -9.6, 1, 6.0, 9.184607, 50, 0, 0.261799, 34, 500, 1, -9.6, 0.5, 500, 12247014, 4.0, 4.0, 0.069813, 11.540801, 46, 122, 0, 0, 13.111598, 1, 12251983, -9.6, 3000
1, 0, 0.5, 0, 0, 0, SS04.asc, 653, 0, -9.6, -9.6, 1, 6.0, 6.711371, 50, 0, -0.261799, 75, 500, 1, -9.6, 0.5, 500, 12253022, 4.0, 4.0, -0.069813, 9.067565, 47, 47, 0, 0, 10.638362, 1, 12257944, -9.6, 3000
0, 0, 0.5, 0, 0, 0, SS04.asc, 654, 0, -9.6, -9.6, 0, 6.0, 9.069171, 50, 0, 0.261799, 292, 500, 0, -9.6, 0.5, 500, 12259111, 4.0, 4.0, 0.034907, 11.425365, 48, 47, 0, 1, 11.425365, 1, 12264040, -9.6, 3000
0, 0, 0.5, 0, 1, 0, SS04.asc, 530, 0, -9.6, -9.6, 1, 6.0, 11.729367, 50, 0, -0.261799, 343, 500, 1, -9.6, 0.5, 500, 12265664, 4.0, 4.0, -0.069813, 15.656358, 49, 47, 0, 1, 15.656358, 1, 12270464, -9.6, 3000
0, 0, 0.5, 0, 0, 0, SS04.asc, 639, 0, -9.6, -9.6, 0, 6.0, 6.379254, 50, 0, -0.261799, 133, 500, 1, -9.6, 0.5, 500, 12271710, 4.0, 4.0, -0.069813, 8.735448, 50, 47, 0, 1, 8.735448, 1, 12276619, -9.6, 3000
1, 0, 0.5, 0, 1, 0, SS04.asc, 632, 0, -9.6, -9.6, 0, 6.0, 8.737246, 50, 0, 0.261799, 341, 500, 1, -9.6, 0.5, 500, 12278756, 4.0, 4.0, -0.10472, 12.664237, 51, 47, 0, 0, 11.09344, 0, 12283659, -9.6, 3000
1, 0, 0.5, 0, 0, 0, SS04.asc, 813, 0, -9.6, -9.6, 1, 6.0, 11.990918, 50, 0, -0.261799, 362, 500, 1, -9.6, 0.5, 500, 12284693, 4.0, 4.0, -0.034907, 14.347113, 52, 47, 0, 0, 15.91791, 1, 12289775, -9.6, 3000
1, 0, 0.5, 0, 0, 0, SS04.asc, 613, 0, -9.6, -9.6, 1, 6.0, 11.890632, 50, 0, -0.523599, 8, 500, 1, -9.6, 0.5, 500, 12291009, 4.0, 4.0, -0.069813, 14.246826, 53, 47, 0, 0, 15.817622, 1, 12295891, -9.6, 3000
1, 0, 0.5, 0, 1, 0, SS04.asc, 1390, 0, -9.6, -9.6, 0, 6.0, 9.770988, 50, 0, 0.261799, 211, 500, 1, -9.6, 0.5, 500, 12296925, 4.0, 4.0, -0.034907, 13.69798, 54, 47, 0, 0, 12.127183, 0, 12302585, -9.6, 3000
0, 0, 0.5, 0, 0, 0, SS04.asc, 739, 0, -9.6, -9.6, 0, 6.0, 9.951813, 50, 0, -0.523599, 263, 500, 1, -9.6, 0.5, 500, 12304478, 4.0, 4.0, -0.10472, 12.308007, 55, 47, 0, 1, 12.308007, 1, 12309486, -9.6, 3000
0, 0, 0.5, 0, 1, 0, SS04.asc, 576, 0, -9.6, -9.6, 1, 6.0, 11.781332, 50, 0, -0.261799, 35, 500, 1, -9.6, 0.5, 500, 12311180, 4.0, 4.0, 0.034907, 15.708323, 56, 122, 0, 1, 15.708323, 0, 12316025, -9.6, 3000
0, 0, 0.5, 0, 1, 0, SS04.asc, 639, 0, -9.6, -9.6, 1, 6.0, 9.510013, 50, 0, 0.523599, 113, 500, 0, -9.6, 0.5, 500, 12317964, 4.0, 4.0, 0.034907, 13.437003, 57, 47, 0, 1, 13.437003, 1, 12322872, -9.6, 3000
1, 0, 0.5, 0, 1, 0, SS04.asc, 582, 0, -9.6, -9.6, 0, 6.0, 8.958721, 50, 0, -0.261799, 307, 500, 1, -9.6, 0.5, 500, 12323907, 4.0, 4.0, 0.10472, 12.885712, 58, 122, 0, 0, 11.314916, 0, 12328758, -9.6, 3000
1, 0, 0.5, 0, 1, 0, SS04.asc, 581, 0, -9.6, -9.6, 0, 6.0, 12.407215, 50, 0, -0.523599, 219, 500, 1, -9.6, 0.5, 500, 12329792, 4.0, 4.0, -0.069813, 16.334206, 59, 47, 0, 0, 14.76341, 1, 12334643, -9.6, 3000
1, 0, 0.5, 0, 0, 0, SS04.asc, 635, 0, -9.6, -9.6, 1, 6.0, 9.477798, 50, 0, -0.261799, 177, 500, 1, -9.6, 0.5, 500, 12335911, 4.0, 4.0, -0.10472, 11.833992, 60, 47, 0, 0, 13.404789, 1, 12340814, -9.6, 3000
0, 0, 0.5, 0, 0, 0, SS04.asc, 640, 0, -9.6, -9.6, 0, 6.0, 12.393792, 50, 0, 0.261799, 325, 500, 0, -9.6, 0.5, 500, 12341847, 4.0, 4.0, 0.034907, 14.749987, 61, 47, 0, 1, 14.749987, 1, 12346757, -9.6, 3000
1, 0, 0.5, 0, 0, 0, SS04.asc, 611, 0, -9.6, -9.6, 1, 6.0, 11.834256, 50, 0, 0.261799, 357, 500, 1, -9.6, 0.5, 500, 12348952, 4.0, 4.0, -0.10472, 14.190451, 62, 47, 0, 0, 15.761247, 0, 12353833, -9.6, 3000
0, 0, 0.5, 1, 0, 0, SS04.asc, 690, 0, -9.6, -9.6, 1, 6.0, 11.708466, 50, 0, 0.523599, 120, 500, 1, -9.6, 0.5, 500, 12355836, 4.0, 4.0, -0.034907, 14.06466, 63, 47, 0, 0, 15.635457, 0, 12360795, -9.6, 3000
0, 0, 0.5, 0, 1, 0, SS04.asc, 689, 0, -9.6, -9.6, 1, 6.0, 8.904647, 50, 1, -0.261799, 32, 500, 1, -9.6, 0.5, 500, 12371261, 4.0, 4.0, -0.10472, 12.831637, 64, 47, 0, 1, 12.831637, 1, 12376220, -9.6, 3000
0, 0, 0.5, 0, 1, 0, SS04.asc, 555, 0, -9.6, -9.6, 1, 6.0, 11.799356, 50, 0, 0.261799, 318, 500, 1, -9.6, 0.5, 500, 12377858, 4.0, 4.0, -0.069813, 15.726348, 65, 47, 0, 1, 15.726348, 0, 12382682, -9.6, 3000
1, 0, 0.5, 0, 1, 0, SS04.asc, 734, 0, -9.6, -9.6, 0, 6.0, 9.070897, 50, 0, 0.261799, 246, 500, 1, -9.6, 0.5, 500, 12383718, 4.0, 4.0, 0.069813, 12.997888, 66, 122, 0, 0, 11.427092, 1, 12388721, -9.6, 3000
0, 0, 0.5, 0, 1, 0, SS04.asc, 629, 0, -9.6, -9.6, 1, 6.0, 9.036573, 50, 0, -0.523599, 248, 500, 1, -9.6, 0.5, 500, 12390439, 4.0, 4.0, 0.069813, 12.963564, 67, 122, 0, 1, 12.963564, 0, 12395338, -9.6, 3000
0, 0, 0.5, 0, 0, 0, SS04.asc, 655, 0, -9.6, -9.6, 0, 6.0, 6.813959, 50, 0, -0.523599, 164, 500, 1, -9.6, 0.5, 500, 12396415, 4.0, 4.0, 0.10472, 9.170154, 68, 122, 0, 1, 9.170154, 0, 12401338, -9.6, 3000
0, 0, 0.5, 0, 1, 0, SS04.asc, 1124, 0, -9.6, -9.6, 1, 6.0, 12.526294, 50, 0, 0.261799, 351, 500, 1, -9.6, 0.5, 500, 12402676, 4.0, 4.0, 0.034907, 16.453285, 69, 122, 0, 1, 16.453285, 1, 12408070, -9.6, 3000
0, 0, 0.5, 0, 0, 0, SS04.asc, 517, 0, -9.6, -9.6, 0, 6.0, 11.702905, 50, 0, -0.261799, 368, 500, 1, -9.6, 0.5, 500, 12409091, 4.0, 4.0, -0.10472, 14.059099, 70, 47, 0, 1, 14.059099, 1, 12413878, -9.6, 3000
0, 0, 0.5, 0, 1, 0, SS04.asc, 791, 0, -9.6, -9.6, 1, 6.0, 12.120352, 50, 0, 0.261799, 175, 500, 0, -9.6, 0.5, 500, 12414913, 4.0, 4.0, 0.034907, 16.047342, 71, 47, 0, 1, 16.047342, 1, 12419973, -9.6, 3000
0, 0, 0.5, 0, 0, 0, SS04.asc, 820, 0, -9.6, -9.6, 0, 6.0, 6.444642, 50, 0, 0.523599, 333, 500, 1, -9.6, 0.5, 500, 12422361, 4.0, 4.0, 0.10472, 8.800837, 72, 122, 0, 1, 8.800837, 1, 12427452, -9.6, 3000
0, 0, 0.5, 0, 0, 0, SS04.asc, 466, 0, -9.6, -9.6, 0, 6.0, 11.795713, 50, 0, -0.261799, 89, 500, 1, -9.6, 0.5, 500, 12428486, 4.0, 4.0, 0.069813, 14.151908, 73, 122, 0, 1, 14.151908, 0, 12433221, -9.6, 3000
0, 0, 0.5, 0, 0, 0, SS04.asc, 465, 0, -9.6, -9.6, 0, 6.0, 8.702538, 50, 0, 0.261799, 170, 500, 1, -9.6, 0.5, 500, 12434255, 4.0, 4.0, -0.069813, 11.058733, 74, 47, 0, 1, 11.058733, 0, 12438991, -9.6, 3000
0, 0, 0.5, 0, 0, 0, SS04.asc, 449, 0, -9.6, -9.6, 0, 6.0, 9.139353, 50, 0, 0.261799, 140, 500, 1, -9.6, 0.5, 500, 12441659, 4.0, 4.0, -0.10472, 11.495547, 75, 47, 0, 1, 11.495547, 0, 12446377, -9.6, 3000
0, 0, 0.5, 0, 1, 0, SS04.asc, 570, 0, -9.6, -9.6, 1, 6.0, 12.549688, 50, 0, -0.523599, 25, 500, 1, -9.6, 0.5, 500, 12448761, 4.0, 4.0, 0.069813, 16.476679, 76, 122, 0, 1, 16.476679, 0, 12453608, -9.6, 3000
1, 0, 0.5, 0, 0, 0, SS04.asc, 467, 0, -9.6, -9.6, 1, 6.0, 7.006479, 50, 0, 0.261799, 151, 500, 1, -9.6, 0.5, 500, 12454642, 4.0, 4.0, -0.10472, 9.362674, 77, 47, 0, 0, 10.93347, 0, 12459378, -9.6, 3000
1, 0, 0.5, 0, 0, 0, SS04.asc, 513, 0, -9.6, -9.6, 1, 6.0, 11.848446, 50, 0, -0.523599, 233, 500, 1, -9.6, 0.5, 500, 12460613, 4.0, 4.0, -0.10472, 14.20464, 78, 47, 0, 0, 15.775436, 1, 12465396, -9.6, 3000
0, 0, 0.5, 0, 1, 0, SS04.asc, 582, 0, -9.6, -9.6, 1, 6.0, 12.221023, 50, 0, -0.261799, 15, 500, 1, -9.6, 0.5, 500, 12466430, 4.0, 4.0, 0.069813, 16.148014, 79, 122, 0, 1, 16.148014, 0, 12471282, -9.6, 3000
1, 0, 0.5, 0, 0, 0, SS04.asc, 456, 0, -9.6, -9.6, 1, 6.0, 9.567155, 50, 0, -0.261799, 207, 500, 1, -9.6, 0.5, 500, 12473134, 4.0, 4.0, 0.10472, 11.923349, 80, 122, 0, 0, 13.494145, 0, 12477859, -9.6, 3000
0, 0, 0.5, 0, 1, 0, SS04.asc, 508, 0, -9.6, -9.6, 1, 6.0, 9.943567, 50, 0, 0.261799, 168, 500, 1, -9.6, 0.5, 500, 12479236, 4.0, 4.0, -0.10472, 13.870558, 81, 47, 0, 1, 13.870558, 0, 12484014, -9.6, 3000
0, 0, 0.5, 0, 1, 0, SS04.asc, 942, 0, -9.6, -9.6, 1, 6.0, 8.985183, 50, 0, 0.261799, 290, 500, 1, -9.6, 0.5, 500, 12485112, 4.0, 4.0, 0.069813, 12.912174, 82, 122, 0, 1, 12.912174, 1, 12490322, -9.6, 3000
1, 0, 0.5, 0, 0, 0, SS04.asc, 606, 0, -9.6, -9.6, 1, 6.0, 6.840804, 50, 0, 0.523599, 136, 500, 1, -9.6, 0.5, 500, 12491717, 4.0, 4.0, 0.10472, 9.196999, 83, 122, 0, 0, 10.767796, 1, 12496592, -9.6, 3000
1, 0, 0.5, 0, 0, 0, SS04.asc, 660, 0, -9.6, -9.6, 1, 6.0, 9.220656, 50, 0, 0.261799, 195, 500, 1, -9.6, 0.5, 500, 12497626, 4.0, 4.0, 0.10472, 11.576851, 84, 122, 0, 0, 13.147647, 1, 12502555, -9.6, 3000
0, 0, 0.5, 0, 1, 0, SS04.asc, 635, 0, -9.6, -9.6, 1, 6.0, 12.463591, 50, 0, -0.261799, 76, 500, 1, -9.6, 0.5, 500, 12504959, 4.0, 4.0, 0.069813, 16.390581, 85, 122, 0, 1, 16.390581, 0, 12509863, -9.6, 3000
0, 0, 0.5, 0, 0, 0, SS04.asc, 1020, 0, -9.6, -9.6, 0, 6.0, 9.839445, 50, 0, 0.523599, 20, 500, 1, -9.6, 0.5, 500, 12510959, 4.0, 4.0, 0.069813, 12.19564, 86, 122, 0, 1, 12.19564, 1, 12516249, -9.6, 3000
1, 0, 0.5, 0, 0, 0, SS04.asc, 696, 0, -9.6, -9.6, 1, 6.0, 9.587289, 50, 0, -0.523599, 48, 500, 1, -9.6, 0.5, 500, 12517284, 4.0, 4.0, 0.10472, 11.943483, 87, 122, 0, 0, 13.51428, 0, 12522251, -9.6, 3000
1, 0, 0.5, 0, 0, 0, SS04.asc, 422, 0, -9.6, -9.6, 1, 6.0, 9.612984, 50, 0, 0.523599, 276, 500, 1, -9.6, 0.5, 500, 12523289, 4.0, 4.0, -0.069813, 11.969178, 88, 47, 0, 0, 13.539975, 0, 12527983, -9.6, 3000
1, 0, 0.5, 0, 0, 0, SS04.asc, 561, 0, -9.6, -9.6, 1, 6.0, 10.209912, 50, 0, 0.261799, 111, 500, 1, -9.6, 0.5, 500, 12530461, 4.0, 4.0, -0.10472, 12.566107, 89, 47, 0, 0, 14.136904, 0, 12535292, -9.6, 3000
1, 0, 0.5, 0, 1, 0, SS04.asc, 679, 0, -9.6, -9.6, 0, 6.0, 10.15392, 50, 0, -0.261799, 251, 500, 1, -9.6, 0.5, 500, 12537498, 4.0, 4.0, 0.034907, 14.080912, 90, 122, 0, 0, 12.510115, 0, 12542447, -9.6, 3000
0, 0, 0.5, 0, 0, 0, SS04.asc, 649, 0, -9.6, -9.6, 0, 6.0, 6.747037, 50, 0, 0.261799, 224, 500, 1, -9.6, 0.5, 500, 12543870, 4.0, 4.0, 0.10472, 9.103231, 91, 122, 0, 1, 9.103231, 1, 12548803, -9.6, 3000
0, 0, 0.5, 0, 0, 0, SS04.asc, 765, 0, -9.6, -9.6, 0, 6.0, 7.096603, 50, 0, 0.523599, 241, 500, 0, -9.6, 0.5, 500, 12549837, 4.0, 4.0, 0.10472, 9.452798, 92, 47, 0, 1, 9.452798, 1, 12554872, -9.6, 3000
0, 0, 0.5, 0, 0, 0, SS04.asc, 606, 0, -9.6, -9.6, 0, 6.0, 6.338794, 50, 0, -0.523599, 305, 500, 1, -9.6, 0.5, 500, 12556153, 4.0, 4.0, -0.069813, 8.694988, 93, 47, 0, 1, 8.694988, 1, 12561038, -9.6, 3000
0, 0, 0.5, 0, 1, 0, SS04.asc, 517, 0, -9.6, -9.6, 1, 6.0, 9.327655, 50, 0, 0.523599, 302, 500, 1, -9.6, 0.5, 500, 12562666, 4.0, 4.0, -0.034907, 13.254645, 94, 47, 0, 1, 13.254645, 0, 12567452, -9.6, 3000
0, 0, 0.5, 0, 1, 0, SS04.asc, 465, 0, -9.6, -9.6, 1, 6.0, 12.310955, 50, 0, -0.523599, 184, 500, 1, -9.6, 0.5, 500, 12568487, 4.0, 4.0, 0.10472, 16.237946, 95, 122, 0, 1, 16.237946, 0, 12573223, -9.6, 3000
0, 0, 0.5, 0, 0, 0, SS04.asc, 1197, 0, -9.6, -9.6, 0, 6.0, 9.953921, 50, 0, 0.523599, 189, 500, 1, -9.6, 0.5, 500, 12575219, 4.0, 4.0, 0.10472, 12.310116, 96, 122, 0, 1, 12.310116, 1, 12580688, -9.6, 3000
0, 0, 0.5, 0, 1, 0, SS04.asc, 519, 0, -9.6, -9.6, 1, 6.0, 10.221801, 50, 0, 0.523599, 53, 500, 1, -9.6, 0.5, 500, 12583263, 4.0, 4.0, -0.10472, 14.148792, 97, 47, 0, 1, 14.148792, 0, 12588052, -9.6, 3000
0, 0, 0.5, 0, 1, 0, SS04.asc, 552, 0, -9.6, -9.6, 1, 6.0, 9.515574, 50, 0, -0.523599, 42, 500, 1, -9.6, 0.5, 500, 12589727, 4.0, 4.0, -0.10472, 13.442564, 98, 47, 0, 1, 13.442564, 1, 12594552, -9.6, 3000
1, 0, 0.5, 0, 0, 0, SS04.asc, 543, 0, -9.6, -9.6, 1, 6.0, 12.470494, 50, 0, 0.523599, 381, 500, 1, -9.6, 0.5, 500, 12595586, 4.0, 4.0, 0.069813, 14.826689, 99, 122, 0, 0, 16.397486, 1, 12600399, -9.6, 3000
0, 0, 0.5, 0, 1, 0, SS04.asc, 930, 0, -9.6, -9.6, 1, 6.0, 9.429476, 50, 0, 0.523599, 74, 500, 0, -9.6, 0.5, 500, 12601433, 4.0, 4.0, 0.069813, 13.356467, 100, 47, 0, 1, 13.356467, 1, 12606631, -9.6, 3000
0, 0, 0.5, 0, 1, 0, SS04.asc, 907, 0, -9.6, -9.6, 1, 6.0, 12.147773, 50, 0, -0.523599, 11, 500, 1, -9.6, 0.5, 500, 12608741, 4.0, 4.0, -0.069813, 16.074764, 101, 47, 0, 1, 16.074764, 1, 12613918, -9.6, 3000
1, 0, 0.5, 0, 0, 0, SS04.asc, 815, 0, -9.6, -9.6, 1, 6.0, 6.981168, 50, 0, -0.523599, 180, 500, 1, -9.6, 0.5, 500, 12614952, 4.0, 4.0, -0.10472, 9.337362, 102, 47, 0, 0, 10.908159, 1, 12620035, -9.6, 3000
1, 0, 0.5, 0, 1, 0, SS04.asc, 851, 0, -9.6, -9.6, 0, 6.0, 11.970017, 50, 0, 0.261799, 10, 500, 1, -9.6, 0.5, 500, 12621069, 4.0, 4.0, 0.10472, 15.897008, 103, 122, 0, 0, 14.326212, 1, 12626189, -9.6, 3000
0, 0, 0.5, 0, 0, 0, SS04.asc, 610, 0, -9.6, -9.6, 0, 6.0, 6.332466, 50, 1, -0.261799, 345, 500, 1, -9.6, 0.5, 500, 12627232, 4.0, 4.0, 0.034907, 8.688661, 104, 122, 0, 1, 8.688661, 0, 12632113, -9.6, 3000
