sacc_lat, PRACTICE, a_freq, a_loc, cond, FILE, RT, loc, saccade_latency, min_x, min_y, t_loc, j_size, j_angle, p4_dur, SOA, fix_lost, a_tilt, seq_trial_id, p1_dur, correct, max_x, t_freq, p3_dur, TRIAL_START, t_width, a_width, t_tilt, a_angle, TRIALID, response, hemihoriz, OUTLIER, t_angle, congruent, TRIAL_END, max_y, p2_dur, hemivert
301, 0, 0.5, 1, retino, SS03.asc, 833, act, 0, -9.6, -9.6, 2, 6.0, 9.500233, 50, 414, 1, -0.523599, 1, 500, 1, -9.6, 0.5, 100, 1436849, 4.0, 4.0, 0.034907, 13.427224, 0, 122, same, 0, 14.99802, 0, 1441866, -9.6, 3000, diff
180, 0, 0.5, 1, retino, SS03.asc, 27024, mir, 0, -9.6, -9.6, 3, 6.0, 8.730151, 50, 293, 0, 0.523599, 28, 500, 0, -9.6, 0.5, 100, 1442902, 4.0, 4.0, -0.034907, 12.657142, 1, 122, same, 0, 15.798735, 0, 1473995, -9.6, 3000, diff
283, 0, 0.5, 0, retino, SS03.asc, 10293, act, 0, -9.6, -9.6, 3, 6.0, 8.476461, 50, 396, 0, 0.523599, 244, 500, 0, -9.6, 0.5, 100, 1475039, 4.0, 4.0, -0.034907, 10.832656, 2, 122, same, 0, 15.545045, 0, 1489502, -9.6, 3000, diff
204, 0, 0.5, 0, retino, SS03.asc, 6845, act, 0, -9.6, -9.6, 3, 6.0, 11.429081, 50, 318, 0, 0.523599, 292, 500, 1, -9.6, 0.5, 100, 1490538, 4.0, 4.0, 0.034907, 13.785275, 3, 122, diff, 0, 18.497665, 1, 1501468, -9.6, 3000, same
215, 0, 0.5, 1, retino, SS03.asc, 934, mir, 0, -9.6, -9.6, 3, 6.0, 7.426419, 50, 328, 0, -0.523599, 230, 500, 0, -9.6, 0.5, 100, 1502789, 4.0, 4.0, -0.034907, 11.353411, 4, 122, diff, 0, 14.495003, 1, 1507820, -9.6, 3000, diff
161, 0, 0.5, 1, spatio, SS03.asc, 10005, act, 0, -9.6, -9.6, 1, 6.0, 11.483347, 50, 275, 0, 0.523599, 119, 500, 0, -9.6, 0.5, 100, 1508854, 4.0, 4.0, -0.034907, 15.410338, 5, 122, same, 0, 15.410338, 0, 1522906, -9.6, 3000, diff
223, 0, 0.5, 1, spatio, SS03.asc, 2826, act, 0, -9.6, -9.6, 1, 6.0, 7.506956, 50, 336, 0, 0.523599, 272, 500, 0, -9.6, 0.5, 100, 1523941, 4.0, 4.0, -0.034907, 11.433947, 6, 122, diff, 0, 11.433947, 0, 1530874, -9.6, 3000, diff
160, 0, 0.5, 0, spatio, SS03.asc, 1786, act, 0, -9.6, -9.6, 0, 6.0, 11.806643, 50, 274, 0, 0.523599, 295, 500, 0, -9.6, 0.5, 100, 1531921, 4.0, 4.0, -0.034907, 14.162838, 7, 122, diff, 0, 14.162838, 0, 1537760, -9.6, 3000, diff
177, 0, 0.5, 1, retino, SS03.asc, 6463, mir, 0, -9.6, -9.6, 3, 6.0, 10.384983, 50, 291, 1, -0.523599, 223, 500, 1, -9.6, 0.5, 100, 1538794, 4.0, 4.0, 0.034907, 14.311975, 8, 122, diff, 0, 17.453568, 0, 1549322, -9.6, 3000, same
251, 0, 0.5, 0, retino, SS03.asc, 8797, mir, 0, -9.6, -9.6, 2, 6.0, 7.719419, 50, 364, 1, -0.523599, 39, 500, 0, -9.6, 0.5, 100, 1551010, 4.0, 4.0, -0.034907, 10.075613, 9, 122, diff, 0, 13.217206, 1, 1564062, -9.6, 3000, diff
193, 0, 0.5, 1, spatio, SS03.asc, 817, act, 0, -9.6, -9.6, 1, 6.0, 10.401091, 50, 308, 0, 0.523599, 107, 500, 1, -9.6, 0.5, 100, 1565097, 4.0, 4.0, 0.034907, 14.328081, 10, 122, same, 0, 14.328081, 1, 1569988, -9.6, 3000, diff
243, 0, 0.5, 0, retino, SS03.asc, 4009, act, 0, -9.6, -9.6, 3, 6.0, 9.43101, 50, 358, 0, -0.523599, 44, 500, 0, -9.6, 0.5, 100, 1571040, 4.0, 4.0, -0.034907, 11.787205, 11, 122, same, 0, 16.499594, 1, 1579186, -9.6, 3000, same
200, 0, 0.5, 1, spatio, SS03.asc, 3692, act, 0, -9.6, -9.6, 1, 6.0, 7.722486, 50, 312, 0, 0.523599, 360, 500, 1, -9.6, 0.5, 100, 1580262, 4.0, 4.0, 0.034907, 11.649478, 12, 122, diff, 0, 11.649478, 1, 1588038, -9.6, 3000, diff
188, 0, 0.5, 1, retino, SS03.asc, 3949, act, 0, -9.6, -9.6, 2, 6.0, 11.548543, 50, 302, 1, 0.523599, 246, 500, 0, -9.6, 0.5, 100, 1589528, 4.0, 4.0, -0.034907, 15.475534, 13, 122, same, 0, 17.046331, 0, 1597546, -9.6, 3000, same
396, 0, 0.5, 0, spatio, SS03.asc, 8204, mir, 0, -9.6, -9.6, 1, 6.0, 8.646546, 50, 509, 0, 0.523599, 164, 500, 0, -9.6, 0.5, 100, 1598580, 4.0, 4.0, -0.034907, 11.002741, 14, 122, diff, 0, 12.573538, 0, 1611074, -9.6, 3000, diff
372, 0, 0.5, 1, spatio, SS03.asc, 948, act, 0, -9.6, -9.6, 1, 6.0, 11.743364, 50, 486, 1, -0.523599, 366, 500, 0, -9.6, 0.5, 100, 1612108, 4.0, 4.0, -0.034907, 15.670356, 15, 122, same, 0, 15.670356, 1, 1617309, -9.6, 3000, diff
182, 0, 0.5, 0, spatio, SS03.asc, 4217, mir, 0, -9.6, -9.6, 1, 6.0, 7.87704, 50, 294, 0, 0.523599, 67, 500, 0, -9.6, 0.5, 100, 1618343, 4.0, 4.0, -0.034907, 10.233234, 16, 122, diff, 0, 11.804031, 0, 1626622, -9.6, 3000, diff
297, 0, 0.5, 1, spatio, SS03.asc, 2655, mir, 0, -9.6, -9.6, 0, 6.0, 9.25709, 50, 411, 0, 0.523599, 286, 500, 0, -9.6, 0.5, 100, 1627637, 4.0, 4.0, -0.034907, 13.18408, 17, 122, diff, 0, 11.613284, 0, 1634475, -9.6, 3000, diff
153, 0, 0.5, 1, retino, SS03.asc, 1861, act, 0, -9.6, -9.6, 2, 6.0, 11.355256, 50, 266, 0, 0.523599, 357, 500, 0, -9.6, 0.5, 100, 1635851, 4.0, 4.0, -0.034907, 15.282247, 18, 122, same, 0, 16.853043, 0, 1641748, -9.6, 3000, same
250, 0, 0.5, 1, spatio, SS03.asc, 2140, act, 0, -9.6, -9.6, 1, 6.0, 7.712515, 50, 364, 0, 0.523599, 301, 500, 1, -9.6, 0.5, 100, 1642785, 4.0, 4.0, 0.034907, 11.639506, 19, 122, diff, 0, 11.639506, 1, 1649061, -9.6, 3000, diff
353, 0, 0.5, 0, retino, SS03.asc, 2145, mir, 0, -9.6, -9.6, 2, 6.0, 10.983254, 50, 468, 0, -0.523599, 314, 500, 0, -9.6, 0.5, 100, 1650449, 4.0, 4.0, -0.034907, 13.339449, 20, 122, diff, 0, 16.481041, 1, 1656835, -9.6, 3000, same
511, 0, 0.5, 0, spatio, SS03.asc, 16028, mir, 0, -9.6, -9.6, 1, 6.0, 7.409162, 50, 623, 0, 0.523599, 302, 500, 0, -9.6, 0.5, 100, 1658173, 4.0, 4.0, -0.034907, 9.765356, 21, 122, diff, 0, 11.336152, 0, 1678595, -9.6, 3000, diff
218, 0, 0.5, 1, spatio, SS03.asc, 534, act, 0, -9.6, -9.6, 1, 6.0, 11.601275, 50, 331, 0, 0.523599, 226, 500, 1, -9.6, 0.5, 100, 1679650, 4.0, 4.0, -0.034907, 15.528266, 22, 47, same, 0, 15.528266, 0, 1684289, -9.6, 3000, diff
275, 0, 0.5, 1, spatio, SS03.asc, 924, mir, 0, -9.6, -9.6, 0, 6.0, 9.262267, 50, 387, 0, -0.523599, 137, 500, 1, -9.6, 0.5, 100, 1686159, 4.0, 4.0, 0.034907, 13.189258, 23, 122, diff, 0, 11.618462, 0, 1691254, -9.6, 3000, diff
162, 0, 0.5, 0, spatio, SS03.asc, 963, act, 0, -9.6, -9.6, 0, 6.0, 12.240582, 50, 276, 0, -0.523599, 327, 500, 1, -9.6, 0.5, 100, 1692288, 4.0, 4.0, 0.034907, 14.596776, 24, 122, diff, 0, 14.596776, 0, 1697295, -9.6, 3000, diff
197, 0, 0.5, 1, retino, SS03.asc, 562, act, 0, -9.6, -9.6, 2, 6.0, 6.382705, 50, 311, 0, 0.523599, 263, 500, 0, -9.6, 0.5, 100, 1698728, 4.0, 4.0, 0.034907, 10.309696, 25, 47, diff, 0, 11.880492, 1, 1703373, -9.6, 3000, same
186, 0, 0.5, 1, spatio, SS03.asc, 802, act, 0, -9.6, -9.6, 1, 6.0, 7.401299, 50, 299, 0, -0.523599, 312, 500, 1, -9.6, 0.5, 100, 1704726, 4.0, 4.0, 0.034907, 11.328291, 26, 122, diff, 0, 11.328291, 0, 1709607, -9.6, 3000, diff
171, 0, 0.5, 1, spatio, SS03.asc, 606, mir, 0, -9.6, -9.6, 0, 6.0, 9.917871, 50, 284, 1, -0.523599, 198, 500, 1, -9.6, 0.5, 100, 1710642, 4.0, 4.0, -0.034907, 13.844863, 27, 47, diff, 0, 12.274067, 1, 1715301, -9.6, 3000, diff
198, 0, 0.5, 0, retino, SS03.asc, 679, act, 0, -9.6, -9.6, 3, 6.0, 11.691016, 50, 311, 0, 0.523599, 59, 500, 0, -9.6, 0.5, 100, 1716521, 4.0, 4.0, 0.034907, 14.047211, 28, 47, diff, 0, 18.7596, 1, 1721283, -9.6, 3000, same
191, 0, 0.5, 1, spatio, SS03.asc, 738, mir, 0, -9.6, -9.6, 0, 6.0, 8.43907, 50, 304, 0, 0.523599, 318, 500, 0, -9.6, 0.5, 100, 1722317, 4.0, 4.0, 0.034907, 12.36606, 29, 47, diff, 0, 10.795264, 1, 1727131, -9.6, 3000, diff
154, 0, 0.5, 1, retino, SS03.asc, 806, act, 0, -9.6, -9.6, 2, 6.0, 9.426216, 50, 268, 0, -0.523599, 109, 500, 1, -9.6, 0.5, 100, 1728166, 4.0, 4.0, 0.034907, 13.353207, 30, 122, same, 0, 14.924004, 0, 1733018, -9.6, 3000, diff
180, 0, 0.5, 1, spatio, SS03.asc, 586, act, 0, -9.6, -9.6, 1, 6.0, 12.389957, 50, 295, 0, -0.523599, 114, 500, 1, -9.6, 0.5, 100, 1734558, 4.0, 4.0, 0.034907, 16.316948, 31, 122, diff, 0, 16.316948, 0, 1739212, -9.6, 3000, same
278, 0, 0.5, 0, spatio, SS03.asc, 607, act, 0, -9.6, -9.6, 0, 6.0, 6.369474, 50, 391, 0, -0.523599, 81, 500, 1, -9.6, 0.5, 100, 1740246, 4.0, 4.0, 0.034907, 8.725669, 32, 122, diff, 0, 8.725669, 0, 1745023, -9.6, 3000, diff
228, 0, 0.5, 1, retino, SS03.asc, 591, mir, 0, -9.6, -9.6, 3, 6.0, 9.055173, 50, 341, 0, 0.523599, 238, 500, 1, -9.6, 0.5, 100, 1746056, 4.0, 4.0, -0.034907, 12.982164, 33, 47, same, 0, 16.123756, 0, 1750756, -9.6, 3000, diff
208, 0, 0.5, 0, retino, SS03.asc, 468, act, 0, -9.6, -9.6, 3, 6.0, 10.072233, 50, 322, 0, -0.523599, 15, 500, 0, -9.6, 0.5, 100, 1751795, 4.0, 4.0, 0.034907, 12.428428, 34, 47, same, 0, 17.140818, 0, 1756353, -9.6, 3000, same
167, 0, 0.5, 0, spatio, SS03.asc, 567, act, 0, -9.6, -9.6, 0, 6.0, 9.829282, 50, 282, 0, 0.523599, 156, 500, 1, -9.6, 0.5, 100, 1757387, 4.0, 4.0, -0.034907, 12.185476, 35, 47, diff, 0, 12.185476, 0, 1762009, -9.6, 3000, same
152, 0, 0.5, 0, retino, SS03.asc, 541, act, 0, -9.6, -9.6, 3, 6.0, 6.450011, 50, 266, 0, 0.523599, 342, 500, 0, -9.6, 0.5, 100, 1763284, 4.0, 4.0, 0.034907, 8.806206, 36, 47, diff, 0, 13.518595, 1, 1767857, -9.6, 3000, diff
175, 0, 0.5, 0, spatio, SS03.asc, 2296, mir, 0, -9.6, -9.6, 1, 6.0, 6.537067, 50, 289, 0, -0.523599, 242, 500, 1, -9.6, 0.5, 100, 1768891, 4.0, 4.0, 0.034907, 8.893261, 37, 122, diff, 0, 10.464058, 0, 1775246, -9.6, 3000, diff
165, 0, 0.5, 0, retino, SS03.asc, 789, mir, 0, -9.6, -9.6, 2, 6.0, 9.690453, 50, 280, 0, 0.523599, 200, 500, 0, -9.6, 0.5, 100, 1776558, 4.0, 4.0, 0.034907, 12.046647, 38, 47, same, 0, 15.18824, 1, 1781402, -9.6, 3000, diff
216, 0, 0.5, 1, retino, SS03.asc, 2985, mir, 0, -9.6, -9.6, 3, 6.0, 7.860166, 50, 329, 0, 0.523599, 152, 500, 1, -9.6, 0.5, 100, 1783709, 4.0, 4.0, -0.034907, 11.787157, 39, 47, diff, 0, 14.928749, 0, 1790791, -9.6, 3000, diff
197, 0, 0.5, 1, retino, SS03.asc, 760, mir, 0, -9.6, -9.6, 3, 6.0, 9.956798, 50, 311, 1, 0.523599, 179, 500, 0, -9.6, 0.5, 100, 1792647, 4.0, 4.0, 0.034907, 13.883789, 40, 47, same, 0, 17.025381, 1, 1797487, -9.6, 3000, diff
41, 0, 0.5, 0, spatio, SS03.asc, 1037, mir, 0, -9.6, -9.6, 1, 6.0, 10.430045, 50, 159, 0, 0.523599, 90, 500, 0, -9.6, 0.5, 100, 1798521, 4.0, 4.0, -0.034907, 12.78624, 41, 122, diff, 0, 14.357037, 0, 1803490, -9.6, 3000, diff
-1, 0, 0.5, 1, retino, SS03.asc, 823, mir, 0, -9.6, -9.6, 3, 6.0, 7.878958, 50, 104, 1, -0.523599, 5, 500, 0, -9.6, 0.5, 100, 1804524, 4.0, 4.0, -0.034907, 11.805948, 42, 122, diff, 0, 14.947541, 1, 1809224, -9.6, 3000, diff
198, 0, 0.5, 1, retino, SS03.asc, 620, mir, 0, -9.6, -9.6, 3, 6.0, 11.634066, 50, 313, 0, 0.523599, 356, 500, 1, -9.6, 0.5, 100, 1811873, 4.0, 4.0, -0.034907, 15.561056, 43, 47, diff, 0, 18.702648, 0, 1816575, -9.6, 3000, same
190, 0, 0.5, 0, retino, SS03.asc, 708, act, 0, -9.6, -9.6, 3, 6.0, 7.577329, 50, 302, 0, -0.523599, 248, 500, 1, -9.6, 0.5, 100, 1817590, 4.0, 4.0, 0.034907, 9.933524, 44, 122, same, 0, 14.645913, 0, 1822384, -9.6, 3000, diff
180, 0, 0.5, 1, retino, SS03.asc, 624, act, 0, -9.6, -9.6, 2, 6.0, 9.888342, 50, 294, 0, -0.523599, 66, 500, 0, -9.6, 0.5, 100, 1823418, 4.0, 4.0, 0.034907, 13.815332, 45, 47, same, 0, 15.386129, 0, 1828118, -9.6, 3000, diff
177, 0, 0.5, 1, retino, SS03.asc, 972, act, 0, -9.6, -9.6, 2, 6.0, 12.316324, 50, 291, 0, -0.523599, 208, 500, 1, -9.6, 0.5, 100, 1829359, 4.0, 4.0, 0.034907, 16.243315, 46, 122, diff, 0, 17.814112, 0, 1834389, -9.6, 3000, same
158, 0, 0.5, 1, retino, SS03.asc, 929, act, 0, -9.6, -9.6, 2, 6.0, 12.393217, 50, 272, 0, -0.523599, 317, 500, 1, -9.6, 0.5, 100, 1835424, 4.0, 4.0, 0.034907, 16.320208, 47, 122, diff, 0, 17.891005, 0, 1840392, -9.6, 3000, same
300, 0, 0.5, 1, retino, SS03.asc, 656, mir, 0, -9.6, -9.6, 3, 6.0, 8.719029, 50, 412, 0, -0.523599, 103, 500, 0, -9.6, 0.5, 100, 1841710, 4.0, 4.0, 0.034907, 12.64602, 48, 47, same, 0, 15.787613, 0, 1846549, -9.6, 3000, diff
342, 0, 0.5, 1, spatio, SS03.asc, 506, mir, 0, -9.6, -9.6, 0, 6.0, 11.434642, 50, 454, 0, 0.523599, 47, 500, 1, -9.6, 0.5, 100, 1847551, 4.0, 4.0, -0.034907, 15.361632, 49, 47, diff, 0, 13.790836, 0, 1852331, -9.6, 3000, diff
410, 0, 0.5, 0, spatio, SS03.asc, 747, act, 0, -9.6, -9.6, 0, 6.0, 8.884513, 50, 523, 0, 0.523599, 256, 500, 1, -9.6, 0.5, 100, 1853973, 4.0, 4.0, -0.034907, 11.240707, 50, 47, diff, 0, 11.240707, 0, 1859016, -9.6, 3000, same
212, 0, 0.5, 0, retino, SS03.asc, 604, mir, 0, -9.6, -9.6, 2, 6.0, 6.854227, 50, 325, 0, 0.523599, 240, 500, 1, -9.6, 0.5, 100, 1860050, 4.0, 4.0, -0.034907, 9.210422, 51, 47, diff, 0, 12.352015, 0, 1864745, -9.6, 3000, diff
295, 0, 0.5, 1, retino, SS03.asc, 542, act, 0, -9.6, -9.6, 2, 6.0, 9.150283, 50, 410, 0, -0.523599, 268, 500, 1, -9.6, 0.5, 100, 1865950, 4.0, 4.0, -0.034907, 13.077273, 52, 47, same, 0, 14.64807, 1, 1870671, -9.6, 3000, diff
221, 0, 0.5, 1, spatio, SS03.asc, 657, act, 0, -9.6, -9.6, 1, 6.0, 12.462824, 50, 334, 0, 0.523599, 27, 500, 1, -9.6, 0.5, 100, 1871718, 4.0, 4.0, 0.034907, 16.389814, 53, 122, diff, 0, 16.389814, 1, 1876481, -9.6, 3000, same
147, 0, 0.5, 0, spatio, SS03.asc, 551, act, 0, -9.6, -9.6, 0, 6.0, 6.297184, 50, 261, 0, -0.523599, 336, 500, 0, -9.6, 0.5, 100, 1877515, 4.0, 4.0, -0.034907, 8.653378, 54, 122, diff, 0, 8.653378, 1, 1882099, -9.6, 3000, diff
139, 0, 0.5, 1, retino, SS03.asc, 564, mir, 0, -9.6, -9.6, 3, 6.0, 11.285649, 50, 253, 0, 0.523599, 73, 500, 0, -9.6, 0.5, 100, 1883134, 4.0, 4.0, 0.034907, 15.21264, 55, 47, diff, 0, 18.354233, 1, 1887717, -9.6, 3000, same
169, 0, 0.5, 0, spatio, SS03.asc, 648, mir, 0, -9.6, -9.6, 1, 6.0, 7.936675, 50, 282, 0, -0.523599, 329, 500, 0, -9.6, 0.5, 100, 1888751, 4.0, 4.0, 0.034907, 10.29287, 56, 47, diff, 0, 11.863667, 0, 1893451, -9.6, 3000, diff
210, 0, 0.5, 0, retino, SS03.asc, 642, act, 0, -9.6, -9.6, 3, 6.0, 10.721703, 50, 323, 0, -0.523599, 326, 500, 0, -9.6, 0.5, 100, 1894485, 4.0, 4.0, -0.034907, 13.077897, 57, 122, diff, 0, 17.790287, 1, 1899223, -9.6, 3000, same
168, 0, 0.5, 1, retino, SS03.asc, 511, act, 0, -9.6, -9.6, 2, 6.0, 9.137435, 50, 281, 0, 0.523599, 191, 500, 0, -9.6, 0.5, 100, 1900239, 4.0, 4.0, 0.034907, 13.064426, 58, 47, same, 0, 14.635222, 1, 1904801, -9.6, 3000, diff
166, 0, 0.5, 0, retino, SS03.asc, 598, mir, 0, -9.6, -9.6, 2, 6.0, 6.504277, 50, 279, 0, -0.523599, 36, 500, 1, -9.6, 0.5, 100, 1905845, 4.0, 4.0, 0.034907, 8.860472, 59, 122, diff, 0, 12.002065, 0, 1910496, -9.6, 3000, diff
198, 0, 0.5, 1, retino, SS03.asc, 468, mir, 0, -9.6, -9.6, 3, 6.0, 11.608371, 50, 310, 0, -0.523599, 279, 500, 1, -9.6, 0.5, 100, 1911530, 4.0, 4.0, -0.034907, 15.535361, 60, 47, diff, 0, 18.676954, 1, 1916076, -9.6, 3000, same
275, 0, 0.5, 0, spatio, SS03.asc, 661, act, 0, -9.6, -9.6, 0, 6.0, 8.265341, 50, 387, 0, 0.523599, 204, 500, 0, -9.6, 0.5, 100, 1917441, 4.0, 4.0, -0.034907, 10.621535, 61, 122, same, 0, 10.621535, 0, 1922271, -9.6, 3000, diff
298, 0, 0.5, 1, spatio, SS03.asc, 495, mir, 0, -9.6, -9.6, 0, 6.0, 10.242702, 50, 412, 0, 0.523599, 118, 500, 0, -9.6, 0.5, 100, 1923323, 4.0, 4.0, 0.034907, 14.169693, 62, 47, diff, 0, 12.598897, 1, 1928004, -9.6, 3000, diff
340, 0, 0.5, 1, spatio, SS03.asc, 517, act, 0, -9.6, -9.6, 1, 6.0, 7.839648, 50, 451, 0, -0.523599, 345, 500, 1, -9.6, 0.5, 100, 1929038, 4.0, 4.0, -0.034907, 11.766639, 63, 47, diff, 0, 11.766639, 1, 1933776, -9.6, 3000, diff
165, 0, 0.5, 0, spatio, SS03.asc, 593, act, 0, -9.6, -9.6, 0, 6.0, 11.71115, 50, 278, 0, 0.523599, 233, 500, 1, -9.6, 0.5, 100, 1963138, 4.0, 4.0, -0.034907, 14.067345, 64, 47, diff, 0, 14.067345, 0, 1967792, -9.6, 3000, diff
188, 0, 0.5, 0, retino, SS03.asc, 538, act, 0, -9.6, -9.6, 3, 6.0, 9.349132, 50, 300, 0, -0.523599, 276, 500, 0, -9.6, 0.5, 100, 1969148, 4.0, 4.0, 0.034907, 11.705326, 65, 47, same, 0, 16.417715, 0, 1973756, -9.6, 3000, same
161, 0, 0.5, 0, retino, SS03.asc, 601, act, 0, -9.6, -9.6, 3, 6.0, 9.723818, 50, 275, 0, -0.523599, 354, 500, 1, -9.6, 0.5, 100, 1974790, 4.0, 4.0, -0.034907, 12.080012, 66, 47, same, 0, 16.7924, 1, 1979456, -9.6, 3000, same
168, 0, 0.5, 0, spatio, SS03.asc, 701, act, 0, -9.6, -9.6, 0, 6.0, 7.231981, 50, 282, 0, -0.523599, 313, 500, 1, -9.6, 0.5, 100, 1980490, 4.0, 4.0, -0.034907, 9.588176, 67, 47, same, 0, 9.588176, 1, 1985240, -9.6, 3000, diff
162, 0, 0.5, 0, retino, SS03.asc, 445, act, 0, -9.6, -9.6, 3, 6.0, 11.254202, 50, 276, 0, -0.523599, 122, 500, 1, -9.6, 0.5, 100, 1986287, 4.0, 4.0, -0.034907, 13.610396, 68, 47, diff, 0, 18.322786, 1, 1990781, -9.6, 3000, same
189, 0, 0.5, 0, retino, SS03.asc, 589, act, 0, -9.6, -9.6, 3, 6.0, 6.994399, 50, 302, 0, -0.523599, 150, 500, 0, -9.6, 0.5, 100, 1991816, 4.0, 4.0, -0.034907, 9.350594, 69, 122, diff, 0, 14.062983, 1, 1996476, -9.6, 3000, diff
231, 0, 0.5, 0, retino, SS03.asc, 560, mir, 0, -9.6, -9.6, 2, 6.0, 10.390161, 50, 343, 0, 0.523599, 144, 500, 1, -9.6, 0.5, 100, 1997539, 4.0, 4.0, -0.034907, 12.746355, 70, 47, diff, 0, 15.887948, 0, 2002210, -9.6, 3000, same
300, 0, 0.5, 1, spatio, SS03.asc, 505, act, 0, -9.6, -9.6, 1, 6.0, 7.227379, 50, 413, 0, 0.523599, 332, 500, 1, -9.6, 0.5, 100, 2003244, 4.0, 4.0, -0.034907, 11.15437, 71, 47, diff, 0, 11.15437, 0, 2007944, -9.6, 3000, diff
214, 0, 0.5, 0, retino, SS03.asc, 713, mir, 0, -9.6, -9.6, 2, 6.0, 9.99745, 50, 327, 0, 0.523599, 180, 500, 0, -9.6, 0.5, 100, 2008979, 4.0, 4.0, 0.034907, 12.353644, 72, 47, same, 0, 15.495237, 1, 2013792, -9.6, 3000, diff
237, 0, 0.5, 0, spatio, SS03.asc, 689, mir, 0, -9.6, -9.6, 1, 6.0, 12.279316, 50, 350, 0, -0.523599, 154, 500, 1, -9.6, 0.5, 100, 2015026, 4.0, 4.0, 0.034907, 14.63551, 73, 122, diff, 0, 16.206306, 0, 2019833, -9.6, 3000, diff
195, 0, 0.5, 1, retino, SS03.asc, 700, act, 0, -9.6, -9.6, 2, 6.0, 9.057858, 50, 307, 0, -0.523599, 338, 500, 1, -9.6, 0.5, 100, 2020905, 4.0, 4.0, -0.034907, 12.984849, 74, 47, same, 0, 14.555645, 1, 2025683, -9.6, 3000, diff
214, 0, 0.5, 1, spatio, SS03.asc, 630, mir, 0, -9.6, -9.6, 0, 6.0, 6.901974, 50, 327, 0, 0.523599, 278, 500, 0, -9.6, 0.5, 100, 2026918, 4.0, 4.0, -0.034907, 10.828964, 75, 122, diff, 0, 9.258168, 0, 2031647, -9.6, 3000, diff
179, 0, 0.5, 1, spatio, SS03.asc, 871, act, 0, -9.6, -9.6, 1, 6.0, 9.676838, 50, 292, 0, 0.523599, 195, 500, 1, -9.6, 0.5, 100, 2032681, 4.0, 4.0, 0.034907, 13.603828, 76, 122, diff, 0, 13.603828, 1, 2037612, -9.6, 3000, diff
217, 0, 0.5, 1, retino, SS03.asc, 817, act, 0, -9.6, -9.6, 2, 6.0, 6.655571, 50, 331, 0, 0.523599, 253, 500, 0, -9.6, 0.5, 100, 2038650, 4.0, 4.0, 0.034907, 10.582561, 77, 47, diff, 0, 12.153358, 1, 2043575, -9.6, 3000, same
191, 0, 0.5, 1, retino, SS03.asc, 1061, act, 0, -9.6, -9.6, 2, 6.0, 11.284115, 50, 305, 0, 0.523599, 151, 500, 1, -9.6, 0.5, 100, 2045520, 4.0, 4.0, 0.034907, 15.211106, 78, 122, same, 0, 16.781902, 1, 2050663, -9.6, 3000, same
11, 0, 0.5, 1, retino, SS03.asc, 656, act, 0, -9.6, -9.6, 2, 6.0, 9.413177, 50, 369, 0, -0.523599, 110, 500, 0, -9.6, 0.5, 100, 2051702, 4.0, 4.0, 0.034907, 13.340168, 79, 47, same, 0, 14.910964, 0, 2056505, -9.6, 3000, diff
178, 0, 0.5, 0, spatio, SS03.asc, 848, act, 0, -9.6, -9.6, 0, 6.0, 7.798229, 50, 291, 0, -0.523599, 325, 500, 1, -9.6, 0.5, 100, 2057542, 4.0, 4.0, -0.034907, 10.154424, 80, 47, same, 0, 10.154424, 1, 2062448, -9.6, 3000, diff
212, 0, 0.5, 0, spatio, SS03.asc, 685, act, 0, -9.6, -9.6, 0, 6.0, 11.298113, 50, 325, 0, 0.523599, 337, 500, 0, -9.6, 0.5, 100, 2063482, 4.0, 4.0, 0.034907, 13.654307, 81, 47, diff, 0, 13.654307, 1, 2068259, -9.6, 3000, diff
176, 0, 0.5, 0, spatio, SS03.asc, 1057, mir, 0, -9.6, -9.6, 1, 6.0, 9.323628, 50, 288, 0, -0.523599, 251, 500, 1, -9.6, 0.5, 100, 2069293, 4.0, 4.0, -0.034907, 11.679823, 82, 47, diff, 0, 13.250619, 1, 2074417, -9.6, 3000, diff
192, 0, 0.5, 0, spatio, SS03.asc, 804, act, 0, -9.6, -9.6, 0, 6.0, 7.71194, 50, 306, 0, -0.523599, 185, 500, 0, -9.6, 0.5, 100, 2075452, 4.0, 4.0, -0.034907, 10.068135, 83, 122, same, 0, 10.068135, 1, 2080343, -9.6, 3000, diff
149, 0, 0.5, 0, spatio, SS03.asc, 1096, mir, 0, -9.6, -9.6, 1, 6.0, 12.188424, 50, 264, 0, 0.523599, 281, 500, 0, -9.6, 0.5, 100, 2081640, 4.0, 4.0, 0.034907, 14.54462, 84, 47, diff, 0, 16.115416, 1, 2086769, -9.6, 3000, diff
213, 0, 0.5, 0, spatio, SS03.asc, 1499, act, 0, -9.6, -9.6, 0, 6.0, 9.310781, 50, 327, 0, 0.523599, 34, 500, 1, -9.6, 0.5, 100, 2091488, 4.0, 4.0, -0.034907, 11.666975, 85, 47, diff, 0, 11.666975, 0, 2097083, -9.6, 3000, same
265, 0, 0.5, 1, retino, SS03.asc, 706, act, 0, -9.6, -9.6, 2, 6.0, 6.311181, 50, 378, 0, -0.523599, 359, 500, 0, -9.6, 0.5, 100, 2098117, 4.0, 4.0, 0.034907, 10.238173, 86, 47, diff, 0, 11.808969, 0, 2102971, -9.6, 3000, same
183, 0, 0.5, 1, spatio, SS03.asc, 862, mir, 0, -9.6, -9.6, 0, 6.0, 9.165239, 50, 297, 0, 0.523599, 192, 500, 1, -9.6, 0.5, 100, 2104006, 4.0, 4.0, 0.034907, 13.092231, 87, 122, diff, 0, 11.521434, 1, 2108936, -9.6, 3000, diff
184, 0, 0.5, 0, retino, SS03.asc, 697, mir, 0, -9.6, -9.6, 2, 6.0, 11.061106, 50, 299, 0, 0.523599, 116, 500, 0, -9.6, 0.5, 100, 2109973, 4.0, 4.0, 0.034907, 13.4173, 88, 47, diff, 0, 16.558893, 1, 2114746, -9.6, 3000, same
290, 0, 0.5, 1, retino, SS03.asc, 717, act, 0, -9.6, -9.6, 2, 6.0, 8.309444, 50, 404, 0, -0.523599, 25, 500, 1, -9.6, 0.5, 100, 2115781, 4.0, 4.0, -0.034907, 12.236435, 89, 47, diff, 0, 13.807231, 1, 2120673, -9.6, 3000, diff
215, 0, 0.5, 1, spatio, SS03.asc, 2029, act, 0, -9.6, -9.6, 1, 6.0, 11.138, 50, 328, 0, 0.523599, 55, 500, 0, -9.6, 0.5, 100, 2121972, 4.0, 4.0, -0.034907, 15.06499, 90, 122, same, 0, 15.06499, 0, 2128102, -9.6, 3000, diff
288, 0, 0.5, 1, retino, SS03.asc, 649, act, 0, -9.6, -9.6, 2, 6.0, 6.635245, 50, 403, 0, 0.523599, 350, 500, 1, -9.6, 0.5, 100, 2129142, 4.0, 4.0, -0.034907, 10.562236, 91, 47, diff, 0, 12.133032, 0, 2133990, -9.6, 3000, same
441, 0, 0.5, 0, retino, SS03.asc, 778, mir, 0, -9.6, -9.6, 2, 6.0, 7.537253, 50, 552, 0, -0.523599, 323, 500, 1, -9.6, 0.5, 100, 2135124, 4.0, 4.0, -0.034907, 9.893448, 92, 47, diff, 0, 13.03504, 1, 2140224, -9.6, 3000, diff
256, 0, 0.5, 1, retino, SS03.asc, 662, act, 0, -9.6, -9.6, 2, 6.0, 11.983057, 50, 369, 0, -0.523599, 371, 500, 0, -9.6, 0.5, 100, 2141391, 4.0, 4.0, 0.034907, 15.910048, 93, 47, diff, 0, 17.480844, 0, 2146189, -9.6, 3000, same
228, 0, 0.5, 0, retino, SS03.asc, 822, mir, 0, -9.6, -9.6, 2, 6.0, 9.083169, 50, 341, 0, 0.523599, 99, 500, 1, -9.6, 0.5, 100, 2147223, 4.0, 4.0, 0.034907, 11.439363, 94, 122, same, 0, 14.580956, 1, 2152154, -9.6, 3000, diff
164, 0, 0.5, 1, spatio, SS03.asc, 637, act, 0, -9.6, -9.6, 1, 6.0, 12.220256, 50, 277, 0, -0.523599, 4, 500, 1, -9.6, 0.5, 100, 2153188, 4.0, 4.0, -0.034907, 16.147247, 95, 47, diff, 0, 16.147247, 1, 2157886, -9.6, 3000, same
175, 0, 0.5, 1, retino, SS03.asc, 1363, act, 0, -9.6, -9.6, 2, 6.0, 9.732255, 50, 289, 0, 0.523599, 160, 500, 1, -9.6, 0.5, 100, 2159237, 4.0, 4.0, 0.034907, 13.659245, 96, 122, same, 0, 15.230042, 1, 2164659, -9.6, 3000, diff
45, 0, 0.5, 0, spatio, SS03.asc, 796, act, 0, -9.6, -9.6, 0, 6.0, 7.111944, 50, 158, 0, 0.523599, 212, 500, 0, -9.6, 0.5, 100, 2165704, 4.0, 4.0, 0.034907, 9.468139, 97, 47, same, 0, 9.468139, 1, 2170479, -9.6, 3000, diff
426, 0, 0.5, 0, spatio, SS03.asc, 810, mir, 0, -9.6, -9.6, 1, 6.0, 11.18076, 50, 539, 0, -0.523599, 231, 500, 1, -9.6, 0.5, 100, 2171892, 4.0, 4.0, -0.034907, 13.536955, 98, 47, diff, 0, 15.107751, 1, 2177012, -9.6, 3000, diff
172, 0, 0.5, 0, retino, SS03.asc, 936, mir, 0, -9.6, -9.6, 2, 6.0, 8.812988, 50, 285, 0, -0.523599, 183, 500, 0, -9.6, 0.5, 100, 2178045, 4.0, 4.0, -0.034907, 11.169183, 99, 122, same, 0, 14.310776, 1, 2183054, -9.6, 3000, diff
185, 0, 0.5, 1, spatio, SS03.asc, 891, mir, 0, -9.6, -9.6, 0, 6.0, 6.718849, 50, 299, 0, -0.523599, 209, 500, 0, -9.6, 0.5, 100, 2184088, 4.0, 4.0, 0.034907, 10.64584, 100, 47, diff, 0, 9.075044, 0, 2189057, -9.6, 3000, diff
182, 0, 0.5, 1, spatio, SS03.asc, 786, act, 0, -9.6, -9.6, 1, 6.0, 9.5917, 50, 296, 0, 0.523599, 43, 500, 1, -9.6, 0.5, 100, 2190092, 4.0, 4.0, 0.034907, 13.51869, 101, 122, diff, 0, 13.51869, 1, 2194944, -9.6, 3000, diff
196, 0, 0.5, 1, retino, SS03.asc, 772, act, 0, -9.6, -9.6, 2, 6.0, 10.557369, 50, 311, 0, -0.523599, 97, 500, 1, -9.6, 0.5, 100, 2195977, 4.0, 4.0, -0.034907, 14.484361, 102, 47, same, 0, 16.055157, 1, 2200833, -9.6, 3000, same
36, 0, 0.5, 0, spatio, SS03.asc, 631, act, 0, -9.6, -9.6, 0, 6.0, 6.650393, 50, 378, 0, -0.523599, 153, 500, 0, -9.6, 0.5, 100, 2201865, 4.0, 4.0, -0.034907, 9.006588, 103, 122, diff, 0, 9.006588, 1, 2206643, -9.6, 3000, diff
434, 0, 0.5, 0, retino, SS03.asc, 938, mir, 0, -9.6, -9.6, 2, 6.0, 8.869555, 50, 547, 0, -0.523599, 98, 500, 0, -9.6, 0.5, 100, 2207848, 4.0, 4.0, -0.034907, 11.22575, 104, 122, same, 0, 14.367343, 1, 2213108, -9.6, 3000, diff
201, 0, 0.5, 0, spatio, SS03.asc, 652, act, 0, -9.6, -9.6, 0, 6.0, 12.392067, 50, 314, 0, 0.523599, 13, 500, 1, -9.6, 0.5, 100, 2214142, 4.0, 4.0, 0.034907, 14.748261, 105, 122, diff, 0, 14.748261, 1, 2218880, -9.6, 3000, diff
199, 0, 0.5, 1, spatio, SS03.asc, 879, act, 0, -9.6, -9.6, 1, 6.0, 9.838869, 50, 314, 0, -0.523599, 148, 500, 1, -9.6, 0.5, 100, 2219914, 4.0, 4.0, 0.034907, 13.765861, 106, 122, diff, 0, 13.765861, 0, 2224884, -9.6, 3000, diff
432, 0, 0.5, 0, spatio, SS03.asc, 693, mir, 0, -9.6, -9.6, 1, 6.0, 8.473585, 50, 545, 1, 0.523599, 65, 500, 0, -9.6, 0.5, 100, 2225918, 4.0, 4.0, 0.034907, 10.82978, 107, 47, diff, 0, 12.400576, 1, 2230942, -9.6, 3000, diff
203, 0, 0.5, 0, spatio, SS03.asc, 692, act, 0, -9.6, -9.6, 0, 6.0, 11.15775, 50, 317, 0, -0.523599, 361, 500, 1, -9.6, 0.5, 100, 2231976, 4.0, 4.0, 0.034907, 13.513945, 108, 122, diff, 0, 13.513945, 0, 2236753, -9.6, 3000, diff
329, 0, 0.5, 1, spatio, SS03.asc, 793, act, 0, -9.6, -9.6, 1, 6.0, 7.078578, 50, 442, 0, -0.523599, 259, 500, 1, -9.6, 0.5, 100, 2237786, 4.0, 4.0, 0.034907, 11.005569, 109, 122, diff, 0, 11.005569, 0, 2242795, -9.6, 3000, diff
203, 0, 0.5, 1, spatio, SS03.asc, 634, mir, 0, -9.6, -9.6, 0, 6.0, 11.319015, 50, 316, 0, 0.523599, 174, 500, 1, -9.6, 0.5, 100, 2243846, 4.0, 4.0, 0.034907, 15.246005, 110, 122, diff, 0, 13.675209, 1, 2248567, -9.6, 3000, diff
88, 0, 0.5, 1, spatio, SS03.asc, 795, act, 0, -9.6, -9.6, 1, 6.0, 7.675699, 50, 367, 0, -0.523599, 8, 500, 1, -9.6, 0.5, 100, 2249601, 4.0, 4.0, 0.034907, 11.60269, 111, 122, diff, 0, 11.60269, 0, 2254532, -9.6, 3000, diff
241, 0, 0.5, 1, spatio, SS03.asc, 808, mir, 0, -9.6, -9.6, 0, 6.0, 10.414897, 50, 355, 0, 0.523599, 211, 500, 1, -9.6, 0.5, 100, 2255566, 4.0, 4.0, 0.034907, 14.341887, 112, 122, diff, 0, 12.771091, 1, 2260497, -9.6, 3000, diff
241, 0, 0.5, 0, spatio, SS03.asc, 718, mir, 0, -9.6, -9.6, 1, 6.0, 7.789409, 50, 354, 0, -0.523599, 32, 500, 1, -9.6, 0.5, 100, 2261535, 4.0, 4.0, 0.034907, 10.145603, 113, 122, diff, 0, 11.716399, 0, 2266386, -9.6, 3000, diff
166, 0, 0.5, 0, spatio, SS03.asc, 1088, mir, 0, -9.6, -9.6, 1, 6.0, 11.342216, 50, 280, 1, 0.523599, 245, 500, 1, -9.6, 0.5, 100, 2267420, 4.0, 4.0, 0.034907, 13.698411, 114, 122, diff, 0, 15.269208, 1, 2272620, -9.6, 3000, diff
267, 0, 0.5, 0, retino, SS03.asc, 1086, act, 0, -9.6, -9.6, 3, 6.0, 8.032743, 50, 380, 0, -0.523599, 215, 500, 1, -9.6, 0.5, 100, 2273657, 4.0, 4.0, 0.034907, 10.388938, 115, 122, same, 0, 15.101328, 0, 2278893, -9.6, 3000, diff
223, 0, 0.5, 1, spatio, SS03.asc, 945, act, 0, -9.6, -9.6, 1, 6.0, 9.532448, 50, 336, 0, -0.523599, 145, 500, 1, -9.6, 0.5, 100, 2280384, 4.0, 4.0, -0.034907, 13.459438, 116, 47, diff, 0, 13.459438, 1, 2285435, -9.6, 3000, diff
308, 0, 0.5, 0, spatio, SS03.asc, 795, mir, 0, -9.6, -9.6, 1, 6.0, 12.36292, 50, 422, 0, 0.523599, 70, 500, 1, -9.6, 0.5, 100, 2287951, 4.0, 4.0, 0.034907, 14.719114, 117, 122, diff, 0, 16.289911, 1, 2292939, -9.6, 3000, diff
295, 0, 0.5, 0, retino, SS03.asc, 983, mir, 0, -9.6, -9.6, 2, 6.0, 10.77175, 50, 408, 0, -0.523599, 376, 500, 1, -9.6, 0.5, 100, 2293973, 4.0, 4.0, 0.034907, 13.127945, 118, 122, diff, 0, 16.269537, 0, 2299134, -9.6, 3000, same
216, 0, 0.5, 0, retino, SS03.asc, 10439, act, 0, -9.6, -9.6, 3, 6.0, 7.131503, 50, 329, 0, -0.523599, 220, 500, 1, -9.6, 0.5, 100, 2300168, 4.0, 4.0, -0.034907, 9.487697, 119, 47, same, 0, 14.200087, 1, 2314719, -9.6, 3000, diff
45, 0, 0.5, 1, spatio, SS03.asc, 955, mir, 0, -9.6, -9.6, 0, 6.0, 9.339543, 50, 157, 0, 0.523599, 130, 500, 0, -9.6, 0.5, 100, 2315954, 4.0, 4.0, 0.034907, 13.266535, 120, 47, diff, 0, 11.695738, 1, 2320838, -9.6, 3000, diff
188, 0, 0.5, 1, spatio, SS03.asc, 740, mir, 0, -9.6, -9.6, 0, 6.0, 12.426199, 50, 301, 0, 0.523599, 29, 500, 0, -9.6, 0.5, 100, 2322031, 4.0, 4.0, -0.034907, 16.353189, 121, 122, diff, 0, 14.782393, 0, 2326841, -9.6, 3000, diff
177, 0, 0.5, 0, spatio, SS03.asc, 974, act, 0, -9.6, -9.6, 0, 6.0, 9.125738, 50, 290, 1, 0.523599, 270, 500, 0, -9.6, 0.5, 100, 2328342, 4.0, 4.0, -0.034907, 11.481933, 122, 122, diff, 0, 11.481933, 0, 2333386, -9.6, 3000, same
209, 0, 0.5, 1, retino, SS03.asc, 726, act, 0, -9.6, -9.6, 2, 6.0, 10.668587, 50, 322, 0, 0.523599, 169, 500, 0, -9.6, 0.5, 100, 2334420, 4.0, 4.0, 0.034907, 14.595577, 123, 47, same, 0, 16.166374, 1, 2339234, -9.6, 3000, same
202, 0, 0.5, 0, retino, SS03.asc, 956, act, 0, -9.6, -9.6, 3, 6.0, 6.785771, 50, 316, 0, -0.523599, 162, 500, 0, -9.6, 0.5, 100, 2340314, 4.0, 4.0, -0.034907, 9.141966, 124, 122, diff, 0, 13.854355, 1, 2345353, -9.6, 3000, diff
231, 0, 0.5, 0, spatio, SS03.asc, 892, mir, 0, -9.6, -9.6, 1, 6.0, 8.52881, 50, 344, 0, 0.523599, 77, 500, 1, -9.6, 0.5, 100, 2346387, 4.0, 4.0, 0.034907, 10.885004, 125, 122, diff, 0, 12.455801, 1, 2351395, -9.6, 3000, diff
194, 0, 0.5, 0, retino, SS03.asc, 634, act, 0, -9.6, -9.6, 3, 6.0, 11.701946, 50, 307, 0, 0.523599, 210, 500, 1, -9.6, 0.5, 100, 2353112, 4.0, 4.0, -0.034907, 14.058141, 126, 47, diff, 0, 18.770529, 0, 2357821, -9.6, 3000, same
165, 0, 0.5, 1, spatio, SS03.asc, 551, mir, 0, -9.6, -9.6, 0, 6.0, 9.305028, 50, 275, 0, -0.523599, 102, 500, 1, -9.6, 0.5, 100, 2359386, 4.0, 4.0, -0.034907, 13.232018, 127, 47, diff, 0, 11.661222, 1, 2363979, -9.6, 3000, diff
236, 0, 0.5, 1, spatio, SS03.asc, 667, mir, 0, -9.6, -9.6, 0, 6.0, 6.513481, 50, 350, 0, -0.523599, 299, 500, 0, -9.6, 0.5, 100, 2390752, 4.0, 4.0, 0.034907, 10.440472, 128, 47, diff, 0, 8.869676, 0, 2395537, -9.6, 3000, diff
245, 0, 0.5, 0, retino, SS03.asc, 693, act, 0, -9.6, -9.6, 3, 6.0, 9.602438, 50, 359, 0, -0.523599, 178, 500, 1, -9.6, 0.5, 100, 2397122, 4.0, 4.0, -0.034907, 11.958632, 129, 47, same, 0, 16.671021, 1, 2401942, -9.6, 3000, same
394, 0, 0.5, 0, retino, SS03.asc, 668, mir, 0, -9.6, -9.6, 2, 6.0, 10.353919, 50, 508, 0, 0.523599, 149, 500, 0, -9.6, 0.5, 100, 2402987, 4.0, 4.0, 0.034907, 12.710114, 130, 47, diff, 0, 15.851707, 1, 2407946, -9.6, 3000, same
168, 0, 0.5, 1, retino, SS03.asc, 610, mir, 0, -9.6, -9.6, 3, 6.0, 7.279728, 50, 281, 0, -0.523599, 16, 500, 1, -9.6, 0.5, 100, 2409095, 4.0, 4.0, 0.034907, 11.206718, 131, 122, diff, 0, 14.348311, 0, 2413758, -9.6, 3000, diff
220, 0, 0.5, 1, retino, SS03.asc, 633, act, 0, -9.6, -9.6, 2, 6.0, 6.447518, 50, 334, 0, 0.523599, 316, 500, 1, -9.6, 0.5, 100, 2414772, 4.0, 4.0, -0.034907, 10.374509, 132, 47, diff, 0, 11.945305, 0, 2419510, -9.6, 3000, same
193, 0, 0.5, 0, spatio, SS03.asc, 787, act, 0, -9.6, -9.6, 0, 6.0, 10.156413, 50, 306, 0, -0.523599, 89, 500, 1, -9.6, 0.5, 100, 2420795, 4.0, 4.0, 0.034907, 12.512608, 133, 122, diff, 0, 12.512608, 0, 2425667, -9.6, 3000, same
181, 0, 0.5, 0, spatio, SS03.asc, 712, act, 0, -9.6, -9.6, 0, 6.0, 9.188826, 50, 295, 0, -0.523599, 333, 500, 1, -9.6, 0.5, 100, 2426702, 4.0, 4.0, -0.034907, 11.54502, 134, 47, diff, 0, 11.54502, 1, 2431478, -9.6, 3000, same
168, 0, 0.5, 1, retino, SS03.asc, 569, act, 0, -9.6, -9.6, 2, 6.0, 12.375959, 50, 281, 0, 0.523599, 235, 500, 0, -9.6, 0.5, 100, 2432518, 4.0, 4.0, 0.034907, 16.30295, 135, 47, diff, 0, 17.873747, 1, 2437136, -9.6, 3000, same
259, 0, 0.5, 0, retino, SS03.asc, 643, mir, 0, -9.6, -9.6, 2, 6.0, 12.47778, 50, 371, 0, 0.523599, 71, 500, 0, -9.6, 0.5, 100, 2438172, 4.0, 4.0, -0.034907, 14.833975, 136, 122, diff, 0, 17.975567, 0, 2442964, -9.6, 3000, diff
181, 0, 0.5, 1, spatio, SS03.asc, 742, mir, 0, -9.6, -9.6, 0, 6.0, 9.389975, 50, 295, 0, -0.523599, 146, 500, 1, -9.6, 0.5, 100, 2444003, 4.0, 4.0, 0.034907, 13.316966, 137, 122, diff, 0, 11.746169, 0, 2448813, -9.6, 3000, diff
-1, 0, 0.5, 0, retino, SS03.asc, 739, act, 0, -9.6, -9.6, 3, 6.0, 7.421434, 50, 112, 0, 0.523599, 80, 500, 1, -9.6, 0.5, 100, 2449852, 4.0, 4.0, 0.034907, 9.777628, 138, 122, same, 0, 14.490018, 1, 2454472, -9.6, 3000, diff
223, 0, 0.5, 1, spatio, SS03.asc, 1173, act, 0, -9.6, -9.6, 1, 6.0, 6.504469, 50, 337, 0, -0.523599, 344, 500, 0, -9.6, 0.5, 100, 2455506, 4.0, 4.0, 0.034907, 10.431459, 139, 47, diff, 0, 10.431459, 0, 2460783, -9.6, 3000, same
161, 0, 0.5, 1, retino, SS03.asc, 589, act, 0, -9.6, -9.6, 2, 6.0, 10.62084, 50, 290, 0, 0.523599, 139, 500, 0, -9.6, 0.5, 100, 2461832, 4.0, 4.0, 0.034907, 14.547831, 140, 47, same, 0, 16.118628, 1, 2466479, -9.6, 3000, same
179, 0, 0.5, 1, spatio, SS03.asc, 525, act, 0, -9.6, -9.6, 1, 6.0, 8.390172, 50, 291, 0, 0.523599, 227, 500, 0, -9.6, 0.5, 100, 2467513, 4.0, 4.0, 0.034907, 12.317163, 141, 47, diff, 0, 12.317163, 1, 2472097, -9.6, 3000, diff
195, 0, 0.5, 0, retino, SS03.asc, 700, act, 0, -9.6, -9.6, 3, 6.0, 11.249791, 50, 310, 0, -0.523599, 100, 500, 0, -9.6, 0.5, 100, 2473132, 4.0, 4.0, 0.034907, 13.605986, 142, 47, diff, 0, 18.318375, 0, 2477909, -9.6, 3000, same
234, 0, 0.5, 1, retino, SS03.asc, 727, act, 0, -9.6, -9.6, 2, 6.0, 12.190342, 50, 347, 0, -0.523599, 258, 500, 0, -9.6, 0.5, 100, 2479247, 4.0, 4.0, -0.034907, 16.117332, 143, 122, diff, 0, 17.688129, 1, 2484105, -9.6, 3000, same
225, 0, 0.5, 1, retino, SS03.asc, 882, mir, 0, -9.6, -9.6, 3, 6.0, 8.422579, 50, 338, 0, -0.523599, 31, 500, 1, -9.6, 0.5, 100, 2485157, 4.0, 4.0, -0.034907, 12.349569, 144, 47, diff, 0, 15.491162, 1, 2490146, -9.6, 3000, diff
247, 0, 0.5, 0, spatio, SS03.asc, 709, act, 0, -9.6, -9.6, 0, 6.0, 9.263801, 50, 361, 0, 0.523599, 74, 500, 1, -9.6, 0.5, 100, 2491193, 4.0, 4.0, -0.034907, 11.619995, 145, 47, diff, 0, 11.619995, 0, 2496034, -9.6, 3000, same
340, 0, 0.5, 1, retino, SS03.asc, 622, act, 0, -9.6, -9.6, 2, 6.0, 11.26935, 50, 455, 0, -0.523599, 125, 500, 0, -9.6, 0.5, 100, 2497068, 4.0, 4.0, -0.034907, 15.196342, 146, 122, same, 0, 16.767138, 1, 2501922, -9.6, 3000, same
174, 0, 0.5, 1, retino, SS03.asc, 680, mir, 0, -9.6, -9.6, 3, 6.0, 7.322105, 50, 287, 0, -0.523599, 352, 500, 0, -9.6, 0.5, 100, 2502958, 4.0, 4.0, -0.034907, 11.249097, 147, 122, diff, 0, 14.390689, 1, 2507695, -9.6, 3000, diff
201, 0, 0.5, 0, retino, SS03.asc, 2161, mir, 0, -9.6, -9.6, 2, 6.0, 9.180005, 50, 312, 0, 0.523599, 196, 500, 0, -9.6, 0.5, 100, 2509299, 4.0, 4.0, -0.034907, 11.5362, 148, 122, same, 0, 14.677792, 0, 2515545, -9.6, 3000, diff
233, 0, 0.5, 0, retino, SS03.asc, 662, mir, 0, -9.6, -9.6, 2, 6.0, 10.156605, 50, 345, 0, -0.523599, 375, 500, 1, -9.6, 0.5, 100, 2516808, 4.0, 4.0, -0.034907, 12.512799, 149, 47, same, 0, 15.654392, 1, 2521587, -9.6, 3000, diff
207, 0, 0.5, 0, spatio, SS03.asc, 720, act, 0, -9.6, -9.6, 0, 6.0, 7.619323, 50, 321, 0, -0.523599, 170, 500, 0, -9.6, 0.5, 100, 2522621, 4.0, 4.0, 0.034907, 9.975518, 150, 47, same, 0, 9.975518, 0, 2527436, -9.6, 3000, diff
217, 0, 0.5, 0, retino, SS03.asc, 721, mir, 0, -9.6, -9.6, 2, 6.0, 11.912299, 50, 331, 0, -0.523599, 224, 500, 1, -9.6, 0.5, 100, 2528469, 4.0, 4.0, 0.034907, 14.268495, 151, 122, diff, 0, 17.410088, 0, 2533288, -9.6, 3000, diff
175, 0, 0.5, 1, retino, SS03.asc, 561, act, 0, -9.6, -9.6, 2, 6.0, 10.096203, 50, 288, 0, -0.523599, 2, 500, 0, -9.6, 0.5, 100, 2534322, 4.0, 4.0, 0.034907, 14.023193, 152, 47, same, 0, 15.59399, 0, 2538945, -9.6, 3000, diff
200, 0, 0.5, 0, spatio, SS03.asc, 686, act, 0, -9.6, -9.6, 0, 6.0, 7.923636, 50, 313, 0, -0.523599, 353, 500, 1, -9.6, 0.5, 100, 2539979, 4.0, 4.0, -0.034907, 10.279831, 153, 47, same, 0, 10.279831, 1, 2544959, -9.6, 3000, diff
243, 0, 0.5, 1, retino, SS03.asc, 897, mir, 0, -9.6, -9.6, 3, 6.0, 11.787276, 50, 356, 0, 0.523599, 339, 500, 1, -9.6, 0.5, 100, 2545993, 4.0, 4.0, 0.034907, 15.714268, 154, 122, diff, 0, 18.85586, 1, 2551029, -9.6, 3000, diff
226, 0, 0.5, 0, retino, SS03.asc, 785, act, 0, -9.6, -9.6, 3, 6.0, 12.450744, 50, 338, 0, -0.523599, 138, 500, 1, -9.6, 0.5, 100, 2552182, 4.0, 4.0, 0.034907, 14.806938, 155, 122, diff, 0, 19.519327, 0, 2557072, -9.6, 3000, diff
319, 0, 0.5, 0, retino, SS03.asc, 719, mir, 0, -9.6, -9.6, 2, 6.0, 7.945879, 50, 432, 0, 0.523599, 172, 500, 1, -9.6, 0.5, 100, 2558107, 4.0, 4.0, -0.034907, 10.302074, 156, 47, diff, 0, 13.443666, 0, 2563037, -9.6, 3000, diff
208, 0, 0.5, 1, retino, SS03.asc, 780, act, 0, -9.6, -9.6, 2, 6.0, 11.082774, 50, 323, 0, -0.523599, 370, 500, 1, -9.6, 0.5, 100, 2564072, 4.0, 4.0, 0.034907, 15.009765, 157, 122, same, 0, 16.580561, 0, 2568941, -9.6, 3000, same
257, 0, 0.5, 0, retino, SS03.asc, 691, mir, 0, -9.6, -9.6, 2, 6.0, 8.024882, 50, 370, 0, 0.523599, 3, 500, 1, -9.6, 0.5, 100, 2570462, 4.0, 4.0, 0.034907, 10.381077, 158, 122, diff, 0, 13.522669, 1, 2575291, -9.6, 3000, diff
184, 0, 0.5, 0, spatio, SS03.asc, 545, mir, 0, -9.6, -9.6, 1, 6.0, 9.569264, 50, 298, 0, 0.523599, 277, 500, 1, -9.6, 0.5, 100, 2576327, 4.0, 4.0, -0.034907, 11.925459, 159, 47, diff, 0, 13.496255, 0, 2580948, -9.6, 3000, diff
154, 0, 0.5, 0, retino, SS03.asc, 686, act, 0, -9.6, -9.6, 3, 6.0, 11.833105, 50, 267, 0, 0.523599, 86, 500, 1, -9.6, 0.5, 100, 2582116, 4.0, 4.0, 0.034907, 14.1893, 160, 122, diff, 0, 18.90169, 1, 2586837, -9.6, 3000, diff
198, 0, 0.5, 0, retino, SS03.asc, 731, mir, 0, -9.6, -9.6, 2, 6.0, 8.924973, 50, 311, 0, 0.523599, 197, 500, 1, -9.6, 0.5, 100, 2587871, 4.0, 4.0, 0.034907, 11.281167, 161, 122, same, 0, 14.42276, 1, 2592688, -9.6, 3000, diff
252, 0, 0.5, 1, spatio, SS03.asc, 640, mir, 0, -9.6, -9.6, 0, 6.0, 11.935502, 50, 366, 0, -0.523599, 282, 500, 1, -9.6, 0.5, 100, 2593723, 4.0, 4.0, 0.034907, 15.862493, 162, 122, diff, 0, 14.291697, 0, 2598499, -9.6, 3000, diff
171, 0, 0.5, 1, retino, SS03.asc, 710, act, 0, -9.6, -9.6, 2, 6.0, 9.949512, 50, 285, 0, 0.523599, 92, 500, 1, -9.6, 0.5, 100, 2599508, 4.0, 4.0, 0.034907, 13.876502, 163, 122, same, 0, 15.447299, 1, 2604272, -9.6, 3000, diff
196, 0, 0.5, 0, retino, SS03.asc, 646, mir, 0, -9.6, -9.6, 2, 6.0, 6.842339, 50, 310, 0, -0.523599, 280, 500, 1, -9.6, 0.5, 100, 2605306, 4.0, 4.0, -0.034907, 9.198533, 164, 47, diff, 0, 12.340126, 1, 2610045, -9.6, 3000, diff
302, 0, 0.5, 0, spatio, SS03.asc, 659, mir, 0, -9.6, -9.6, 1, 6.0, 8.30465, 50, 414, 0, -0.523599, 6, 500, 1, -9.6, 0.5, 100, 2611079, 4.0, 4.0, -0.034907, 10.660845, 165, 47, diff, 0, 12.231641, 1, 2615933, -9.6, 3000, diff
187, 0, 0.5, 1, retino, SS03.asc, 1306, mir, 0, -9.6, -9.6, 3, 6.0, 11.649597, 50, 300, 0, -0.523599, 193, 500, 0, -9.6, 0.5, 100, 2617214, 4.0, 4.0, 0.034907, 15.576589, 166, 47, diff, 0, 18.718182, 0, 2622591, -9.6, 3000, same
171, 0, 0.5, 0, spatio, SS03.asc, 570, mir, 0, -9.6, -9.6, 1, 6.0, 12.225049, 50, 284, 0, 0.523599, 294, 500, 0, -9.6, 0.5, 100, 2623625, 4.0, 4.0, -0.034907, 14.581244, 167, 122, diff, 0, 16.15204, 0, 2628248, -9.6, 3000, diff
186, 0, 0.5, 1, retino, SS03.asc, 729, mir, 0, -9.6, -9.6, 3, 6.0, 7.793052, 50, 299, 0, 0.523599, 373, 500, 1, -9.6, 0.5, 100, 2629989, 4.0, 4.0, -0.034907, 11.720043, 168, 47, diff, 0, 14.861635, 0, 2634791, -9.6, 3000, diff
164, 0, 0.5, 1, retino, SS03.asc, 962, act, 0, -9.6, -9.6, 2, 6.0, 9.254405, 50, 278, 0, -0.523599, 289, 500, 0, -9.6, 0.5, 100, 2635825, 4.0, 4.0, -0.034907, 13.181396, 169, 122, same, 0, 14.752192, 1, 2640834, -9.6, 3000, diff
190, 0, 0.5, 1, spatio, SS03.asc, 1318, act, 0, -9.6, -9.6, 1, 6.0, 11.761581, 50, 303, 0, -0.523599, 48, 500, 0, -9.6, 0.5, 100, 2641869, 4.0, 4.0, -0.034907, 15.688572, 170, 122, same, 0, 15.688572, 1, 2647261, -9.6, 3000, diff
244, 0, 0.5, 1, spatio, SS03.asc, 591, mir, 0, -9.6, -9.6, 0, 6.0, 8.619318, 50, 359, 0, 0.523599, 267, 500, 0, -9.6, 0.5, 100, 2648648, 4.0, 4.0, 0.034907, 12.546309, 171, 47, diff, 0, 10.975513, 1, 2653380, -9.6, 3000, diff
194, 0, 0.5, 1, retino, SS03.asc, 813, mir, 0, -9.6, -9.6, 3, 6.0, 12.469535, 50, 306, 0, -0.523599, 158, 500, 0, -9.6, 0.5, 100, 2654415, 4.0, 4.0, 0.034907, 16.396526, 172, 47, diff, 0, 19.538118, 0, 2659307, -9.6, 3000, diff
188, 0, 0.5, 1, spatio, SS03.asc, 636, act, 0, -9.6, -9.6, 1, 6.0, 10.548357, 50, 300, 0, 0.523599, 134, 500, 1, -9.6, 0.5, 100, 2661260, 4.0, 4.0, -0.034907, 14.475348, 173, 47, same, 0, 14.475348, 0, 2665965, -9.6, 3000, diff
179, 0, 0.5, 0, retino, SS03.asc, 815, mir, 0, -9.6, -9.6, 2, 6.0, 9.858045, 50, 293, 0, -0.523599, 249, 500, 1, -9.6, 0.5, 100, 2666999, 4.0, 4.0, -0.034907, 12.214239, 174, 47, same, 0, 15.355832, 1, 2671893, -9.6, 3000, diff
227, 0, 0.5, 0, spatio, SS03.asc, 576, act, 0, -9.6, -9.6, 0, 6.0, 6.850008, 50, 341, 0, -0.523599, 222, 500, 0, -9.6, 0.5, 100, 2673669, 4.0, 4.0, -0.034907, 9.206203, 175, 122, diff, 0, 9.206203, 1, 2678358, -9.6, 3000, diff
173, 0, 0.5, 1, retino, SS03.asc, 838, mir, 0, -9.6, -9.6, 3, 6.0, 9.861689, 50, 287, 0, 0.523599, 266, 500, 1, -9.6, 0.5, 100, 2679392, 4.0, 4.0, -0.034907, 13.788679, 176, 47, same, 0, 16.930271, 0, 2684285, -9.6, 3000, diff
511, 0, 0.5, 0, retino, SS03.asc, 993, act, 0, -9.6, -9.6, 3, 6.0, 9.521901, 50, 624, 0, -0.523599, 264, 500, 1, -9.6, 0.5, 100, 2685319, 4.0, 4.0, -0.034907, 11.878096, 177, 47, same, 0, 16.590485, 1, 2690713, -9.6, 3000, same
331, 0, 0.5, 1, spatio, SS03.asc, 1527, mir, 0, -9.6, -9.6, 0, 6.0, 12.488135, 50, 445, 0, -0.523599, 265, 500, 0, -9.6, 0.5, 100, 2691747, 4.0, 4.0, -0.034907, 16.415127, 178, 122, diff, 0, 14.84433, 1, 2697487, -9.6, 3000, diff
168, 0, 0.5, 0, retino, SS03.asc, 829, act, 0, -9.6, -9.6, 3, 6.0, 7.022779, 50, 282, 0, 0.523599, 307, 500, 1, -9.6, 0.5, 100, 2698522, 4.0, 4.0, 0.034907, 9.378973, 179, 122, diff, 0, 14.091362, 1, 2703414, -9.6, 3000, diff
226, 0, 0.5, 0, retino, SS03.asc, 1516, mir, 0, -9.6, -9.6, 2, 6.0, 10.128609, 50, 339, 0, -0.523599, 166, 500, 1, -9.6, 0.5, 100, 2704448, 4.0, 4.0, 0.034907, 12.484803, 180, 122, same, 0, 15.626396, 0, 2710073, -9.6, 3000, diff
163, 0, 0.5, 1, spatio, SS03.asc, 517, act, 0, -9.6, -9.6, 1, 6.0, 7.904269, 50, 275, 0, 0.523599, 255, 500, 0, -9.6, 0.5, 100, 2711593, 4.0, 4.0, 0.034907, 11.83126, 181, 47, diff, 0, 11.83126, 1, 2716154, -9.6, 3000, diff
180, 0, 0.5, 0, spatio, SS03.asc, 598, mir, 0, -9.6, -9.6, 1, 6.0, 11.574622, 50, 292, 0, -0.523599, 221, 500, 0, -9.6, 0.5, 100, 2717189, 4.0, 4.0, -0.034907, 13.930817, 182, 122, diff, 0, 15.501613, 1, 2721850, -9.6, 3000, diff
165, 0, 0.5, 0, spatio, SS03.asc, 687, act, 0, -9.6, -9.6, 0, 6.0, 7.72824, 50, 278, 0, -0.523599, 104, 500, 1, -9.6, 0.5, 100, 2722884, 4.0, 4.0, 0.034907, 10.084434, 183, 122, same, 0, 10.084434, 0, 2727623, -9.6, 3000, diff
204, 0, 0.5, 1, spatio, SS03.asc, 579, mir, 0, -9.6, -9.6, 0, 6.0, 11.463596, 50, 317, 0, -0.523599, 113, 500, 1, -9.6, 0.5, 100, 2728658, 4.0, 4.0, -0.034907, 15.390588, 184, 47, diff, 0, 13.819791, 1, 2733322, -9.6, 3000, diff
202, 0, 0.5, 1, retino, SS03.asc, 888, act, 0, -9.6, -9.6, 2, 6.0, 9.19266, 50, 314, 0, -0.523599, 94, 500, 0, -9.6, 0.5, 100, 2734928, 4.0, 4.0, -0.034907, 13.119652, 185, 122, same, 0, 14.690448, 1, 2739903, -9.6, 3000, diff
192, 0, 0.5, 0, spatio, SS03.asc, 1279, mir, 0, -9.6, -9.6, 1, 6.0, 7.621241, 50, 305, 0, -0.523599, 45, 500, 1, -9.6, 0.5, 100, 2740938, 4.0, 4.0, -0.034907, 9.977435, 186, 47, diff, 0, 11.548232, 1, 2746292, -9.6, 3000, diff
164, 0, 0.5, 0, retino, SS03.asc, 595, mir, 0, -9.6, -9.6, 2, 6.0, 10.824674, 50, 278, 0, 0.523599, 79, 500, 0, -9.6, 0.5, 100, 2747325, 4.0, 4.0, -0.034907, 13.180868, 187, 122, diff, 0, 16.322462, 0, 2751966, -9.6, 3000, same
198, 0, 0.5, 1, spatio, SS03.asc, 641, mir, 0, -9.6, -9.6, 0, 6.0, 9.694862, 50, 312, 1, 0.523599, 56, 500, 1, -9.6, 0.5, 100, 2753001, 4.0, 4.0, -0.034907, 13.621854, 188, 47, diff, 0, 12.051057, 0, 2757738, -9.6, 3000, diff
259, 0, 0.5, 0, retino, SS03.asc, 672, mir, 0, -9.6, -9.6, 2, 6.0, 8.118458, 50, 372, 0, -0.523599, 247, 500, 1, -9.6, 0.5, 100, 2758843, 4.0, 4.0, -0.034907, 10.474652, 189, 47, diff, 0, 13.616245, 1, 2763665, -9.6, 3000, diff
175, 0, 0.5, 0, spatio, SS03.asc, 975, mir, 0, -9.6, -9.6, 1, 6.0, 6.378678, 50, 288, 0, 0.523599, 168, 500, 1, -9.6, 0.5, 100, 2764710, 4.0, 4.0, -0.034907, 8.734873, 190, 47, diff, 0, 10.30567, 0, 2769746, -9.6, 3000, diff
184, 0, 0.5, 1, retino, SS03.asc, 742, act, 0, -9.6, -9.6, 2, 6.0, 11.192266, 50, 296, 1, -0.523599, 126, 500, 1, -9.6, 0.5, 100, 2770785, 4.0, 4.0, -0.034907, 15.119256, 191, 47, same, 0, 16.690052, 1, 2775596, -9.6, 3000, same
283, 0, 0.5, 0, spatio, SS03.asc, 858, mir, 0, -9.6, -9.6, 1, 6.0, 9.243092, 50, 397, 0, -0.523599, 35, 500, 0, -9.6, 0.5, 100, 2795997, 4.0, 4.0, 0.034907, 11.599286, 192, 47, diff, 0, 13.170082, 0, 2801035, -9.6, 3000, diff
239, 0, 0.5, 0, retino, SS03.asc, 716, act, 0, -9.6, -9.6, 3, 6.0, 12.542593, 50, 352, 0, 0.523599, 20, 500, 1, -9.6, 0.5, 100, 2802083, 4.0, 4.0, -0.034907, 14.898787, 193, 47, diff, 0, 19.611177, 0, 2806923, -9.6, 3000, diff
222, 0, 0.5, 1, retino, SS03.asc, 816, mir, 0, -9.6, -9.6, 3, 6.0, 7.051733, 50, 336, 0, 0.523599, 76, 500, 0, -9.6, 0.5, 100, 2808415, 4.0, 4.0, -0.034907, 10.978724, 194, 122, diff, 0, 14.120317, 0, 2813351, -9.6, 3000, diff
23, 0, 0.5, 1, retino, SS03.asc, 590, mir, 0, -9.6, -9.6, 3, 6.0, 9.285469, 50, 354, 0, -0.523599, 22, 500, 1, -9.6, 0.5, 100, 2814396, 4.0, 4.0, -0.034907, 13.21246, 195, 47, same, 0, 16.354053, 1, 2819124, -9.6, 3000, diff
223, 0, 0.5, 1, retino, SS03.asc, 644, act, 0, -9.6, -9.6, 2, 6.0, 12.534731, 50, 335, 0, 0.523599, 121, 500, 1, -9.6, 0.5, 100, 2820166, 4.0, 4.0, -0.034907, 16.461721, 196, 47, diff, 0, 18.032518, 0, 2824914, -9.6, 3000, same
199, 0, 0.5, 0, spatio, SS03.asc, 677, mir, 0, -9.6, -9.6, 1, 6.0, 10.334743, 50, 313, 0, -0.523599, 310, 500, 1, -9.6, 0.5, 100, 2825964, 4.0, 4.0, -0.034907, 12.690939, 197, 47, diff, 0, 14.261735, 1, 2830725, -9.6, 3000, diff
243, 0, 0.5, 0, retino, SS03.asc, 906, mir, 0, -9.6, -9.6, 2, 6.0, 6.712329, 50, 357, 0, -0.523599, 141, 500, 1, -9.6, 0.5, 100, 2831774, 4.0, 4.0, 0.034907, 9.068524, 198, 122, diff, 0, 12.210116, 0, 2836805, -9.6, 3000, diff
251, 0, 0.5, 1, spatio, SS03.asc, 522, act, 0, -9.6, -9.6, 1, 6.0, 9.599753, 50, 365, 1, 0.523599, 298, 500, 0, -9.6, 0.5, 100, 2838295, 4.0, 4.0, 0.034907, 13.526744, 199, 47, diff, 0, 13.526744, 1, 2843002, -9.6, 3000, diff
310, 0, 0.5, 1, spatio, SS03.asc, 536, act, 0, -9.6, -9.6, 1, 6.0, 7.124024, 50, 424, 0, -0.523599, 101, 500, 1, -9.6, 0.5, 100, 2844042, 4.0, 4.0, -0.034907, 11.051015, 200, 47, diff, 0, 11.051015, 1, 2848775, -9.6, 3000, diff
147, 0, 0.5, 0, spatio, SS03.asc, 704, mir, 0, -9.6, -9.6, 1, 6.0, 10.364082, 50, 262, 0, 0.523599, 213, 500, 1, -9.6, 0.5, 100, 2850123, 4.0, 4.0, 0.034907, 12.720277, 201, 122, diff, 0, 14.291073, 1, 2854856, -9.6, 3000, diff
164, 0, 0.5, 0, retino, SS03.asc, 473, act, 0, -9.6, -9.6, 3, 6.0, 6.55164, 50, 277, 0, -0.523599, 83, 500, 1, -9.6, 0.5, 100, 2855902, 4.0, 4.0, -0.034907, 8.907835, 202, 47, diff, 0, 13.620224, 1, 2860436, -9.6, 3000, diff
152, 0, 0.5, 0, retino, SS03.asc, 579, mir, 0, -9.6, -9.6, 2, 6.0, 9.409917, 50, 266, 0, 0.523599, 257, 500, 0, -9.6, 0.5, 100, 2861470, 4.0, 4.0, 0.034907, 11.766111, 203, 47, same, 0, 14.907704, 1, 2866093, -9.6, 3000, diff
220, 0, 0.5, 1, spatio, SS03.asc, 635, mir, 0, -9.6, -9.6, 0, 6.0, 9.158337, 50, 335, 0, 0.523599, 18, 500, 1, -9.6, 0.5, 100, 2868001, 4.0, 4.0, 0.034907, 13.085327, 204, 122, diff, 0, 11.514531, 1, 2872751, -9.6, 3000, diff
154, 0, 0.5, 1, spatio, SS03.asc, 689, act, 0, -9.6, -9.6, 1, 6.0, 10.427937, 50, 269, 0, -0.523599, 161, 500, 1, -9.6, 0.5, 100, 2873792, 4.0, 4.0, -0.034907, 14.354927, 205, 47, same, 0, 14.354927, 1, 2878524, -9.6, 3000, diff
187, 0, 0.5, 0, spatio, SS03.asc, 552, act, 0, -9.6, -9.6, 0, 6.0, 6.764295, 50, 299, 0, 0.523599, 303, 500, 1, -9.6, 0.5, 100, 2879561, 4.0, 4.0, 0.034907, 9.120489, 206, 122, diff, 0, 9.120489, 1, 2884182, -9.6, 3000, diff
207, 0, 0.5, 0, spatio, SS03.asc, 693, act, 0, -9.6, -9.6, 0, 6.0, 6.492772, 50, 319, 0, 0.523599, 347, 500, 1, -9.6, 0.5, 100, 2885558, 4.0, 4.0, 0.034907, 8.848967, 207, 122, diff, 0, 8.848967, 1, 2890340, -9.6, 3000, diff
184, 0, 0.5, 1, retino, SS03.asc, 578, act, 0, -9.6, -9.6, 2, 6.0, 10.461301, 50, 298, 0, -0.523599, 53, 500, 1, -9.6, 0.5, 100, 2891575, 4.0, 4.0, -0.034907, 14.388292, 208, 47, same, 0, 15.959088, 1, 2896228, -9.6, 3000, same
339, 0, 0.5, 0, spatio, SS03.asc, 826, mir, 0, -9.6, -9.6, 1, 6.0, 8.456519, 50, 452, 0, -0.523599, 69, 500, 1, -9.6, 0.5, 100, 2897262, 4.0, 4.0, 0.034907, 10.812714, 209, 122, diff, 0, 12.38351, 0, 2902309, -9.6, 3000, diff
290, 0, 0.5, 0, spatio, SS03.asc, 606, act, 0, -9.6, -9.6, 0, 6.0, 11.507125, 50, 403, 0, 0.523599, 95, 500, 0, -9.6, 0.5, 100, 2903344, 4.0, 4.0, 0.034907, 13.863319, 210, 47, diff, 0, 13.863319, 1, 2908120, -9.6, 3000, diff
238, 0, 0.5, 1, spatio, SS03.asc, 630, mir, 0, -9.6, -9.6, 0, 6.0, 8.153165, 50, 351, 0, -0.523599, 133, 500, 1, -9.6, 0.5, 100, 2909155, 4.0, 4.0, 0.034907, 12.080156, 211, 122, diff, 0, 10.509359, 0, 2913910, -9.6, 3000, diff
263, 0, 0.5, 0, spatio, SS03.asc, 544, mir, 0, -9.6, -9.6, 1, 6.0, 6.458256, 50, 377, 0, -0.523599, 273, 500, 1, -9.6, 0.5, 100, 2915220, 4.0, 4.0, -0.034907, 8.814451, 212, 47, diff, 0, 10.385247, 1, 2919914, -9.6, 3000, diff
260, 0, 0.5, 1, spatio, SS03.asc, 666, mir, 0, -9.6, -9.6, 0, 6.0, 10.392078, 50, 373, 0, 0.523599, 241, 500, 0, -9.6, 0.5, 100, 2920954, 4.0, 4.0, 0.034907, 14.319069, 213, 47, diff, 0, 12.748273, 1, 2925764, -9.6, 3000, diff
205, 0, 0.5, 1, spatio, SS03.asc, 525, act, 0, -9.6, -9.6, 1, 6.0, 7.580205, 50, 316, 0, -0.523599, 236, 500, 1, -9.6, 0.5, 100, 2927001, 4.0, 4.0, -0.034907, 11.507196, 214, 47, diff, 0, 11.507196, 1, 2931614, -9.6, 3000, diff
41, 0, 0.5, 1, spatio, SS03.asc, 586, act, 0, -9.6, -9.6, 1, 6.0, 10.251523, 50, 153, 0, -0.523599, 78, 500, 1, -9.6, 0.5, 100, 2932990, 4.0, 4.0, -0.034907, 14.178514, 215, 47, same, 0, 14.178514, 1, 2937501, -9.6, 3000, diff
255, 0, 0.5, 1, retino, SS03.asc, 818, mir, 0, -9.6, -9.6, 3, 6.0, 8.704073, 50, 370, 1, -0.523599, 142, 500, 0, -9.6, 0.5, 100, 2938848, 4.0, 4.0, 0.034907, 12.631063, 216, 47, same, 0, 15.772656, 0, 2943852, -9.6, 3000, diff
160, 0, 0.5, 0, retino, SS03.asc, 531, act, 0, -9.6, -9.6, 3, 6.0, 10.720551, 50, 273, 0, 0.523599, 51, 500, 1, -9.6, 0.5, 100, 2944893, 4.0, 4.0, -0.034907, 13.076746, 217, 47, diff, 0, 17.789135, 0, 2949471, -9.6, 3000, same
338, 0, 0.5, 0, retino, SS03.asc, 746, act, 0, -9.6, -9.6, 3, 6.0, 7.351827, 50, 450, 0, 0.523599, 343, 500, 1, -9.6, 0.5, 100, 2950506, 4.0, 4.0, 0.034907, 9.708022, 218, 122, same, 0, 14.420411, 1, 2955475, -9.6, 3000, diff
189, 0, 0.5, 1, spatio, SS03.asc, 527, mir, 0, -9.6, -9.6, 0, 6.0, 10.529181, 50, 302, 1, -0.523599, 105, 500, 1, -9.6, 0.5, 100, 2956518, 4.0, 4.0, -0.034907, 14.456173, 219, 47, diff, 0, 12.885377, 1, 2961364, -9.6, 3000, diff
344, 0, 0.5, 1, spatio, SS03.asc, 502, mir, 0, -9.6, -9.6, 0, 6.0, 8.336864, 50, 454, 0, -0.523599, 324, 500, 0, -9.6, 0.5, 100, 2962479, 4.0, 4.0, 0.034907, 12.263856, 220, 47, diff, 0, 10.693059, 0, 2967214, -9.6, 3000, diff
169, 0, 0.5, 0, spatio, SS03.asc, 689, act, 0, -9.6, -9.6, 0, 6.0, 6.503702, 50, 283, 0, 0.523599, 30, 500, 1, -9.6, 0.5, 100, 2968248, 4.0, 4.0, -0.034907, 8.859897, 221, 47, diff, 0, 8.859897, 0, 2972987, -9.6, 3000, diff
181, 0, 0.5, 0, spatio, SS03.asc, 553, mir, 0, -9.6, -9.6, 1, 6.0, 9.525352, 50, 293, 0, 0.523599, 348, 500, 0, -9.6, 0.5, 100, 2974032, 4.0, 4.0, 0.034907, 11.881547, 222, 47, diff, 0, 13.452344, 1, 2978645, -9.6, 3000, diff
292, 0, 0.5, 0, spatio, SS03.asc, 638, mir, 0, -9.6, -9.6, 1, 6.0, 12.406257, 50, 405, 0, 0.523599, 108, 500, 0, -9.6, 0.5, 100, 2979679, 4.0, 4.0, 0.034907, 14.762451, 223, 47, diff, 0, 16.333248, 1, 2984496, -9.6, 3000, diff
279, 0, 0.5, 0, retino, SS03.asc, 513, act, 0, -9.6, -9.6, 3, 6.0, 11.065708, 50, 391, 0, 0.523599, 250, 500, 0, -9.6, 0.5, 100, 2985511, 4.0, 4.0, 0.034907, 13.421903, 224, 47, diff, 0, 18.134293, 1, 2990193, -9.6, 3000, same
221, 0, 0.5, 1, retino, SS03.asc, 546, mir, 0, -9.6, -9.6, 3, 6.0, 7.786916, 50, 332, 0, 0.523599, 42, 500, 1, -9.6, 0.5, 100, 2991239, 4.0, 4.0, -0.034907, 11.713907, 225, 47, diff, 0, 14.855499, 0, 2995889, -9.6, 3000, diff
181, 0, 0.5, 1, spatio, SS03.asc, 586, mir, 0, -9.6, -9.6, 0, 6.0, 11.888522, 50, 295, 0, -0.523599, 341, 500, 1, -9.6, 0.5, 100, 2996924, 4.0, 4.0, -0.034907, 15.815513, 226, 47, diff, 0, 14.244717, 1, 3001585, -9.6, 3000, diff
213, 0, 0.5, 1, retino, SS03.asc, 875, mir, 0, -9.6, -9.6, 3, 6.0, 8.189598, 50, 326, 0, -0.523599, 106, 500, 0, -9.6, 0.5, 100, 3003018, 4.0, 4.0, -0.034907, 12.116589, 227, 122, diff, 0, 15.258182, 1, 3007992, -9.6, 3000, diff
146, 0, 0.5, 0, spatio, SS03.asc, 779, mir, 0, -9.6, -9.6, 1, 6.0, 10.680475, 50, 259, 0, 0.523599, 232, 500, 1, -9.6, 0.5, 100, 3009444, 4.0, 4.0, 0.034907, 13.03667, 228, 122, diff, 0, 14.607467, 1, 3014269, -9.6, 3000, diff
190, 0, 0.5, 1, spatio, SS03.asc, 855, mir, 0, -9.6, -9.6, 0, 6.0, 6.324796, 50, 303, 0, -0.523599, 10, 500, 1, -9.6, 0.5, 100, 3015305, 4.0, 4.0, 0.034907, 10.251787, 229, 122, diff, 0, 8.68099, 0, 3020232, -9.6, 3000, diff
214, 0, 0.5, 0, retino, SS03.asc, 865, mir, 0, -9.6, -9.6, 2, 6.0, 9.770222, 50, 327, 0, 0.523599, 216, 500, 1, -9.6, 0.5, 100, 3021272, 4.0, 4.0, -0.034907, 12.126416, 230, 47, same, 0, 15.268009, 0, 3026236, -9.6, 3000, diff
175, 0, 0.5, 1, spatio, SS03.asc, 598, act, 0, -9.6, -9.6, 1, 6.0, 8.518072, 50, 290, 0, 0.523599, 120, 500, 0, -9.6, 0.5, 100, 3027277, 4.0, 4.0, 0.034907, 12.445063, 231, 47, diff, 0, 12.445063, 1, 3031933, -9.6, 3000, diff
171, 0, 0.5, 1, spatio, SS03.asc, 699, mir, 0, -9.6, -9.6, 0, 6.0, 10.513458, 50, 284, 0, -0.523599, 181, 500, 1, -9.6, 0.5, 100, 3032981, 4.0, 4.0, 0.034907, 14.440449, 232, 122, diff, 0, 12.869653, 0, 3037744, -9.6, 3000, diff
247, 0, 0.5, 0, retino, SS03.asc, 639, act, 0, -9.6, -9.6, 3, 6.0, 6.72115, 50, 360, 0, 0.523599, 306, 500, 1, -9.6, 0.5, 100, 3039633, 4.0, 4.0, -0.034907, 9.077345, 233, 47, diff, 0, 13.789734, 0, 3044402, -9.6, 3000, diff
220, 0, 0.5, 1, retino, SS03.asc, 521, act, 0, -9.6, -9.6, 2, 6.0, 6.424699, 50, 334, 0, 0.523599, 52, 500, 1, -9.6, 0.5, 100, 3045437, 4.0, 4.0, -0.034907, 10.35169, 234, 47, diff, 0, 11.922486, 0, 3050060, -9.6, 3000, same
223, 0, 0.5, 1, retino, SS03.asc, 548, mir, 0, -9.6, -9.6, 3, 6.0, 9.310014, 50, 336, 0, -0.523599, 163, 500, 1, -9.6, 0.5, 100, 3051129, 4.0, 4.0, -0.034907, 13.237004, 235, 47, same, 0, 16.378597, 1, 3055795, -9.6, 3000, diff
425, 0, 0.5, 1, retino, SS03.asc, 578, mir, 0, -9.6, -9.6, 3, 6.0, 12.397053, 50, 538, 0, 0.523599, 38, 500, 1, -9.6, 0.5, 100, 3056829, 4.0, 4.0, -0.034907, 16.324043, 236, 47, diff, 0, 19.465635, 0, 3061722, -9.6, 3000, diff
184, 0, 0.5, 1, spatio, SS03.asc, 623, act, 0, -9.6, -9.6, 1, 6.0, 12.109038, 50, 298, 0, -0.523599, 124, 500, 1, -9.6, 0.5, 100, 3062763, 4.0, 4.0, 0.034907, 16.03603, 237, 122, diff, 0, 16.03603, 0, 3067455, -9.6, 3000, same
195, 0, 0.5, 0, spatio, SS03.asc, 492, mir, 0, -9.6, -9.6, 1, 6.0, 8.835232, 50, 308, 0, -0.523599, 85, 500, 1, -9.6, 0.5, 100, 3068776, 4.0, 4.0, -0.034907, 11.191426, 238, 47, diff, 0, 12.762223, 1, 3073344, -9.6, 3000, diff
165, 0, 0.5, 1, retino, SS03.asc, 712, mir, 0, -9.6, -9.6, 3, 6.0, 8.993428, 50, 278, 0, -0.523599, 202, 500, 1, -9.6, 0.5, 100, 3074396, 4.0, 4.0, -0.034907, 12.92042, 239, 47, same, 0, 16.062012, 1, 3079155, -9.6, 3000, diff
182, 0, 0.5, 1, spatio, SS03.asc, 523, mir, 0, -9.6, -9.6, 0, 6.0, 9.597644, 50, 295, 0, -0.523599, 368, 500, 1, -9.6, 0.5, 100, 3080189, 4.0, 4.0, -0.034907, 13.524634, 240, 47, diff, 0, 11.953838, 1, 3084775, -9.6, 3000, diff
173, 0, 0.5, 0, retino, SS03.asc, 721, act, 0, -9.6, -9.6, 3, 6.0, 12.042884, 50, 285, 0, -0.523599, 219, 500, 1, -9.6, 0.5, 100, 3085810, 4.0, 4.0, 0.034907, 14.399078, 241, 122, diff, 0, 19.111467, 0, 3090586, -9.6, 3000, diff
184, 0, 0.5, 0, retino, SS03.asc, 749, act, 0, -9.6, -9.6, 3, 6.0, 7.453265, 50, 297, 0, 0.523599, 17, 500, 1, -9.6, 0.5, 100, 3091622, 4.0, 4.0, 0.034907, 9.80946, 242, 122, same, 0, 14.521849, 1, 3096436, -9.6, 3000, diff
156, 0, 0.5, 0, spatio, SS03.asc, 616, mir, 0, -9.6, -9.6, 1, 6.0, 9.670894, 50, 269, 0, 0.523599, 96, 500, 1, -9.6, 0.5, 100, 3097470, 4.0, 4.0, -0.034907, 12.027088, 243, 47, diff, 0, 13.597884, 0, 3102132, -9.6, 3000, diff
163, 0, 0.5, 0, spatio, SS03.asc, 672, mir, 0, -9.6, -9.6, 1, 6.0, 12.155443, 50, 277, 0, 0.523599, 260, 500, 1, -9.6, 0.5, 100, 3103147, 4.0, 4.0, -0.034907, 14.511638, 244, 47, diff, 0, 16.082434, 0, 3107866, -9.6, 3000, diff
185, 0, 0.5, 0, spatio, SS03.asc, 854, mir, 0, -9.6, -9.6, 1, 6.0, 6.809548, 50, 298, 0, 0.523599, 37, 500, 0, -9.6, 0.5, 100, 3108900, 4.0, 4.0, 0.034907, 9.165743, 245, 47, diff, 0, 10.73654, 1, 3113832, -9.6, 3000, diff
172, 0, 0.5, 0, retino, SS03.asc, 513, act, 0, -9.6, -9.6, 3, 6.0, 9.842321, 50, 285, 0, -0.523599, 155, 500, 0, -9.6, 0.5, 100, 3114865, 4.0, 4.0, 0.034907, 12.198516, 246, 47, same, 0, 16.910904, 0, 3119430, -9.6, 3000, same
193, 0, 0.5, 0, spatio, SS03.asc, 628, act, 0, -9.6, -9.6, 0, 6.0, 11.864745, 50, 307, 0, 0.523599, 0, 500, 1, -9.6, 0.5, 100, 3120577, 4.0, 4.0, 0.034907, 14.22094, 247, 122, diff, 0, 14.22094, 1, 3125279, -9.6, 3000, diff
167, 0, 0.5, 1, retino, SS03.asc, 807, mir, 0, -9.6, -9.6, 3, 6.0, 7.89564, 50, 280, 0, 0.523599, 54, 500, 1, -9.6, 0.5, 100, 3126924, 4.0, 4.0, -0.034907, 11.822631, 248, 47, diff, 0, 14.964224, 0, 3131784, -9.6, 3000, diff
44, 0, 0.5, 0, spatio, SS03.asc, 615, act, 0, -9.6, -9.6, 0, 6.0, 9.634652, 50, 155, 0, -0.523599, 234, 500, 1, -9.6, 0.5, 100, 3132819, 4.0, 4.0, -0.034907, 11.990847, 249, 47, diff, 0, 11.990847, 1, 3137371, -9.6, 3000, same
626, 0, 0.5, 1, spatio, SS03.asc, 781, act, 0, -9.6, -9.6, 1, 6.0, 10.041169, 50, 742, 0, -0.523599, 58, 500, 1, -9.6, 0.5, 100, 3138405, 4.0, 4.0, 0.034907, 13.968161, 250, 122, diff, 0, 13.968161, 0, 3143762, -9.6, 3000, diff
322, 0, 0.5, 1, spatio, SS03.asc, 655, act, 0, -9.6, -9.6, 1, 6.0, 12.425241, 50, 435, 0, 0.523599, 363, 500, 1, -9.6, 0.5, 100, 3144797, 4.0, 4.0, -0.034907, 16.35223, 251, 47, diff, 0, 16.35223, 0, 3149668, -9.6, 3000, same
180, 0, 0.5, 0, spatio, SS03.asc, 492, act, 0, -9.6, -9.6, 0, 6.0, 9.6661, 50, 292, 0, 0.523599, 12, 500, 1, -9.6, 0.5, 100, 3150958, 4.0, 4.0, -0.034907, 12.022294, 252, 47, diff, 0, 12.022294, 0, 3155512, -9.6, 3000, same
237, 0, 0.5, 0, spatio, SS03.asc, 565, act, 0, -9.6, -9.6, 0, 6.0, 7.736293, 50, 351, 0, 0.523599, 275, 500, 1, -9.6, 0.5, 100, 3156561, 4.0, 4.0, -0.034907, 10.092487, 253, 47, same, 0, 10.092487, 0, 3161245, -9.6, 3000, diff
210, 0, 0.5, 1, spatio, SS03.asc, 438, mir, 0, -9.6, -9.6, 0, 6.0, 10.949122, 50, 324, 0, -0.523599, 254, 500, 1, -9.6, 0.5, 100, 3162479, 4.0, 4.0, -0.034907, 14.876113, 254, 47, diff, 0, 13.305317, 1, 3167023, -9.6, 3000, diff
195, 0, 0.5, 0, retino, SS03.asc, 603, act, 0, -9.6, -9.6, 3, 6.0, 6.747996, 50, 310, 0, 0.523599, 24, 500, 1, -9.6, 0.5, 100, 3168552, 4.0, 4.0, -0.034907, 9.10419, 255, 47, diff, 0, 13.816579, 0, 3173232, -9.6, 3000, diff
184, 0, 0.5, 0, spatio, SS03.asc, 687, mir, 0, -9.6, -9.6, 1, 6.0, 12.49964, 50, 297, 0, -0.523599, 72, 500, 1, -9.6, 0.5, 100, 3179519, 4.0, 4.0, -0.034907, 14.855835, 256, 47, diff, 0, 16.426632, 1, 3184279, -9.6, 3000, diff
189, 0, 0.5, 0, retino, SS03.asc, 663, mir, 0, -9.6, -9.6, 2, 6.0, 9.921132, 50, 302, 0, 0.523599, 355, 500, 0, -9.6, 0.5, 100, 3185315, 4.0, 4.0, 0.034907, 12.277327, 257, 47, same, 0, 15.418919, 1, 3190051, -9.6, 3000, diff
191, 0, 0.5, 1, spatio, SS03.asc, 458, act, 0, -9.6, -9.6, 1, 6.0, 8.572913, 50, 303, 0, -0.523599, 173, 500, 0, -9.6, 0.5, 100, 3191093, 4.0, 4.0, 0.034907, 12.499905, 258, 47, diff, 0, 12.499905, 0, 3195671, -9.6, 3000, diff
215, 0, 0.5, 1, spatio, SS03.asc, 677, act, 0, -9.6, -9.6, 1, 6.0, 6.675321, 50, 328, 0, 0.523599, 203, 500, 1, -9.6, 0.5, 100, 3196705, 4.0, 4.0, -0.034907, 10.602312, 259, 47, diff, 0, 10.602312, 0, 3201483, -9.6, 3000, same
170, 0, 0.5, 1, retino, SS03.asc, 674, mir, 0, -9.6, -9.6, 3, 6.0, 11.816614, 50, 282, 1, -0.523599, 87, 500, 1, -9.6, 0.5, 100, 3202516, 4.0, 4.0, 0.034907, 15.743606, 260, 122, diff, 0, 18.885199, 0, 3207256, -9.6, 3000, diff
161, 0, 0.5, 0, retino, SS03.asc, 538, mir, 0, -9.6, -9.6, 2, 6.0, 9.450569, 50, 276, 0, 0.523599, 91, 500, 0, -9.6, 0.5, 100, 3208292, 4.0, 4.0, 0.034907, 11.806764, 261, 47, same, 0, 14.948356, 1, 3212876, -9.6, 3000, diff
194, 0, 0.5, 1, spatio, SS03.asc, 619, mir, 0, -9.6, -9.6, 0, 6.0, 8.169847, 50, 306, 0, -0.523599, 64, 500, 0, -9.6, 0.5, 100, 3213922, 4.0, 4.0, 0.034907, 12.096838, 262, 47, diff, 0, 10.526042, 0, 3218630, -9.6, 3000, diff
148, 0, 0.5, 1, spatio, SS03.asc, 511, mir, 0, -9.6, -9.6, 0, 6.0, 10.830618, 50, 262, 0, 0.523599, 358, 500, 0, -9.6, 0.5, 100, 3219662, 4.0, 4.0, 0.034907, 14.757609, 263, 47, diff, 0, 13.186813, 1, 3224207, -9.6, 3000, diff
177, 0, 0.5, 0, spatio, SS03.asc, 673, act, 0, -9.6, -9.6, 0, 6.0, 7.185961, 50, 290, 0, 0.523599, 252, 500, 1, -9.6, 0.5, 100, 3225906, 4.0, 4.0, 0.034907, 9.542155, 264, 122, same, 0, 9.542155, 1, 3230635, -9.6, 3000, diff
147, 0, 0.5, 0, spatio, SS03.asc, 596, mir, 0, -9.6, -9.6, 1, 6.0, 12.281041, 50, 261, 0, 0.523599, 346, 500, 1, -9.6, 0.5, 100, 3231669, 4.0, 4.0, -0.034907, 14.637236, 265, 47, diff, 0, 16.208033, 0, 3236293, -9.6, 3000, diff
183, 0, 0.5, 0, retino, SS03.asc, 518, act, 0, -9.6, -9.6, 3, 6.0, 9.779809, 50, 296, 0, 0.523599, 287, 500, 1, -9.6, 0.5, 100, 3237326, 4.0, 4.0, -0.034907, 12.136004, 266, 47, same, 0, 16.848392, 0, 3241913, -9.6, 3000, same
169, 0, 0.5, 1, retino, SS03.asc, 473, act, 0, -9.6, -9.6, 2, 6.0, 6.941667, 50, 283, 0, 0.523599, 176, 500, 1, -9.6, 0.5, 100, 3242948, 4.0, 4.0, -0.034907, 10.868657, 267, 47, diff, 0, 12.439454, 0, 3247471, -9.6, 3000, same
207, 0, 0.5, 1, spatio, SS03.asc, 639, mir, 0, -9.6, -9.6, 0, 6.0, 10.772326, 50, 321, 0, 0.523599, 49, 500, 0, -9.6, 0.5, 100, 3248505, 4.0, 4.0, -0.034907, 14.699316, 268, 122, diff, 0, 13.12852, 0, 3253244, -9.6, 3000, diff
63, 0, 0.5, 1, retino, SS03.asc, 622, mir, 0, -9.6, -9.6, 3, 6.0, 6.794975, 50, 344, 0, 0.523599, 175, 500, 1, -9.6, 0.5, 100, 3254583, 4.0, 4.0, 0.034907, 10.721966, 269, 122, diff, 0, 13.863559, 1, 3259326, -9.6, 3000, diff
149, 0, 0.5, 1, spatio, SS03.asc, 520, mir, 0, -9.6, -9.6, 0, 6.0, 9.090264, 50, 260, 0, -0.523599, 381, 500, 1, -9.6, 0.5, 100, 3260359, 4.0, 4.0, -0.034907, 13.017255, 270, 47, diff, 0, 11.446459, 1, 3264907, -9.6, 3000, diff
167, 0, 0.5, 1, retino, SS03.asc, 877, mir, 0, -9.6, -9.6, 3, 6.0, 9.013179, 50, 279, 0, -0.523599, 300, 500, 0, -9.6, 0.5, 100, 3266178, 4.0, 4.0, 0.034907, 12.94017, 271, 47, same, 0, 16.081762, 0, 3271104, -9.6, 3000, diff
207, 0, 0.5, 1, spatio, SS03.asc, 749, mir, 0, -9.6, -9.6, 0, 6.0, 6.392485, 50, 321, 0, 0.523599, 351, 500, 0, -9.6, 0.5, 100, 3272138, 4.0, 4.0, -0.034907, 10.319476, 272, 122, diff, 0, 8.748679, 0, 3276992, -9.6, 3000, diff
272, 0, 0.5, 0, retino, SS03.asc, 617, act, 0, -9.6, -9.6, 3, 6.0, 10.070508, 50, 386, 0, 0.523599, 367, 500, 0, -9.6, 0.5, 100, 3278032, 4.0, 4.0, 0.034907, 12.426702, 273, 47, same, 0, 17.139091, 1, 3282806, -9.6, 3000, same
220, 0, 0.5, 0, retino, SS03.asc, 655, act, 0, -9.6, -9.6, 3, 6.0, 12.503859, 50, 334, 0, -0.523599, 288, 500, 0, -9.6, 0.5, 100, 3283851, 4.0, 4.0, -0.034907, 14.860053, 274, 122, diff, 0, 19.572443, 1, 3288618, -9.6, 3000, diff
172, 0, 0.5, 1, retino, SS03.asc, 522, mir, 0, -9.6, -9.6, 3, 6.0, 10.058235, 50, 285, 0, -0.523599, 182, 500, 1, -9.6, 0.5, 100, 3289853, 4.0, 4.0, -0.034907, 13.985227, 275, 47, same, 0, 17.12682, 1, 3294431, -9.6, 3000, diff
335, 0, 0.5, 0, retino, SS03.asc, 934, mir, 0, -9.6, -9.6, 2, 6.0, 7.067073, 50, 447, 0, -0.523599, 311, 500, 1, -9.6, 0.5, 100, 3295465, 4.0, 4.0, 0.034907, 9.423268, 276, 122, diff, 0, 12.56486, 0, 3300628, -9.6, 3000, diff
201, 0, 0.5, 1, retino, SS03.asc, 505, mir, 0, -9.6, -9.6, 3, 6.0, 11.735312, 50, 315, 0, 0.523599, 82, 500, 1, -9.6, 0.5, 100, 3301661, 4.0, 4.0, -0.034907, 15.662302, 277, 47, diff, 0, 18.803894, 0, 3306265, -9.6, 3000, same
310, 0, 0.5, 1, retino, SS03.asc, 725, act, 0, -9.6, -9.6, 2, 6.0, 8.38116, 50, 423, 0, 0.523599, 335, 500, 1, -9.6, 0.5, 100, 3307623, 4.0, 4.0, -0.034907, 12.30815, 278, 47, diff, 0, 13.878947, 0, 3312538, -9.6, 3000, diff
202, 0, 0.5, 1, spatio, SS03.asc, 646, mir, 0, -9.6, -9.6, 0, 6.0, 9.412985, 50, 315, 0, 0.523599, 284, 500, 1, -9.6, 0.5, 100, 3313573, 4.0, 4.0, -0.034907, 13.339976, 279, 47, diff, 0, 11.769179, 0, 3318312, -9.6, 3000, diff
165, 0, 0.5, 1, retino, SS03.asc, 1653, mir, 0, -9.6, -9.6, 3, 6.0, 11.770594, 50, 279, 0, 0.523599, 171, 500, 1, -9.6, 0.5, 100, 3319729, 4.0, 4.0, 0.034907, 15.697585, 280, 122, diff, 0, 18.839178, 1, 3325433, -9.6, 3000, same
192, 0, 0.5, 1, retino, SS03.asc, 518, act, 0, -9.6, -9.6, 2, 6.0, 12.412776, 50, 306, 0, 0.523599, 88, 500, 0, -9.6, 0.5, 100, 3326905, 4.0, 4.0, 0.034907, 16.339767, 281, 47, diff, 0, 17.910563, 1, 3331495, -9.6, 3000, same
162, 0, 0.5, 1, retino, SS03.asc, 720, act, 0, -9.6, -9.6, 2, 6.0, 9.190551, 50, 273, 0, -0.523599, 128, 500, 1, -9.6, 0.5, 100, 3332539, 4.0, 4.0, 0.034907, 13.117542, 282, 122, same, 0, 14.688338, 0, 3337346, -9.6, 3000, diff
200, 0, 0.5, 0, spatio, SS03.asc, 776, act, 0, -9.6, -9.6, 0, 6.0, 9.687193, 50, 312, 0, 0.523599, 283, 500, 1, -9.6, 0.5, 100, 3338380, 4.0, 4.0, 0.034907, 12.043387, 283, 122, diff, 0, 12.043387, 1, 3343235, -9.6, 3000, same
230, 0, 0.5, 0, spatio, SS03.asc, 984, act, 0, -9.6, -9.6, 0, 6.0, 7.389219, 50, 343, 0, -0.523599, 285, 500, 1, -9.6, 0.5, 100, 3344288, 4.0, 4.0, -0.034907, 9.745414, 284, 47, same, 0, 9.745414, 1, 3349393, -9.6, 3000, diff
235, 0, 0.5, 1, spatio, SS03.asc, 617, act, 0, -9.6, -9.6, 1, 6.0, 11.66417, 50, 347, 0, 0.523599, 33, 500, 1, -9.6, 0.5, 100, 3353620, 4.0, 4.0, -0.034907, 15.591162, 285, 47, same, 0, 15.591162, 0, 3358361, -9.6, 3000, diff
213, 0, 0.5, 0, retino, SS03.asc, 593, mir, 0, -9.6, -9.6, 2, 6.0, 6.919999, 50, 327, 0, 0.523599, 308, 500, 1, -9.6, 0.5, 100, 3359406, 4.0, 4.0, -0.034907, 9.276193, 286, 47, diff, 0, 12.417786, 0, 3364096, -9.6, 3000, diff
191, 0, 0.5, 0, retino, SS03.asc, 952, mir, 0, -9.6, -9.6, 2, 6.0, 10.310008, 50, 305, 0, -0.523599, 11, 500, 0, -9.6, 0.5, 100, 3365153, 4.0, 4.0, 0.034907, 12.666203, 287, 47, diff, 0, 15.807795, 0, 3370176, -9.6, 3000, same
184, 0, 0.5, 0, retino, SS03.asc, 632, act, 0, -9.6, -9.6, 3, 6.0, 8.562943, 50, 298, 0, 0.523599, 129, 500, 1, -9.6, 0.5, 100, 3371558, 4.0, 4.0, -0.034907, 10.919137, 288, 47, same, 0, 15.631526, 0, 3376260, -9.6, 3000, diff
189, 0, 0.5, 0, spatio, SS03.asc, 552, mir, 0, -9.6, -9.6, 1, 6.0, 9.966386, 50, 303, 0, -0.523599, 321, 500, 1, -9.6, 0.5, 100, 3377294, 4.0, 4.0, -0.034907, 12.32258, 289, 47, diff, 0, 13.893376, 1, 3381915, -9.6, 3000, diff
170, 0, 0.5, 0, spatio, SS03.asc, 842, act, 0, -9.6, -9.6, 0, 6.0, 8.900428, 50, 283, 0, -0.523599, 322, 500, 1, -9.6, 0.5, 100, 3382949, 4.0, 4.0, 0.034907, 11.256622, 290, 122, diff, 0, 11.256622, 0, 3387843, -9.6, 3000, same
210, 0, 0.5, 0, retino, SS03.asc, 825, mir, 0, -9.6, -9.6, 2, 6.0, 12.07203, 50, 324, 0, -0.523599, 62, 500, 0, -9.6, 0.5, 100, 3389162, 4.0, 4.0, -0.034907, 14.428225, 291, 122, diff, 0, 17.569817, 1, 3394078, -9.6, 3000, diff
162, 0, 0.5, 0, spatio, SS03.asc, 538, act, 0, -9.6, -9.6, 0, 6.0, 6.720191, 50, 275, 0, -0.523599, 271, 500, 0, -9.6, 0.5, 100, 3395112, 4.0, 4.0, -0.034907, 9.076385, 292, 122, diff, 0, 9.076385, 1, 3399697, -9.6, 3000, diff
262, 0, 0.5, 0, spatio, SS03.asc, 590, act, 0, -9.6, -9.6, 0, 6.0, 12.198971, 50, 376, 0, -0.523599, 60, 500, 0, -9.6, 0.5, 100, 3400732, 4.0, 4.0, -0.034907, 14.555165, 293, 122, diff, 0, 14.555165, 1, 3405470, -9.6, 3000, diff
182, 0, 0.5, 1, spatio, SS03.asc, 659, act, 0, -9.6, -9.6, 1, 6.0, 8.1012, 50, 296, 0, -0.523599, 362, 500, 1, -9.6, 0.5, 100, 3406515, 4.0, 4.0, -0.034907, 12.028191, 294, 47, diff, 0, 12.028191, 1, 3411243, -9.6, 3000, diff
181, 0, 0.5, 0, spatio, SS03.asc, 688, mir, 0, -9.6, -9.6, 1, 6.0, 10.521895, 50, 294, 0, -0.523599, 369, 500, 1, -9.6, 0.5, 100, 3412328, 4.0, 4.0, 0.034907, 12.87809, 295, 122, diff, 0, 14.448886, 0, 3417094, -9.6, 3000, diff
262, 0, 0.5, 1, spatio, SS03.asc, 933, act, 0, -9.6, -9.6, 1, 6.0, 6.447326, 50, 376, 0, 0.523599, 315, 500, 1, -9.6, 0.5, 100, 3418127, 4.0, 4.0, -0.034907, 10.374317, 296, 47, diff, 0, 10.374317, 0, 3423214, -9.6, 3000, same
233, 0, 0.5, 0, retino, SS03.asc, 716, mir, 0, -9.6, -9.6, 2, 6.0, 8.654792, 50, 346, 0, 0.523599, 365, 500, 0, -9.6, 0.5, 100, 3424495, 4.0, 4.0, -0.034907, 11.010986, 297, 122, same, 0, 14.152579, 0, 3429335, -9.6, 3000, diff
512, 0, 0.5, 1, spatio, SS03.asc, 803, mir, 0, -9.6, -9.6, 0, 6.0, 10.862641, 50, 625, 0, -0.523599, 115, 500, 0, -9.6, 0.5, 100, 3430369, 4.0, 4.0, -0.034907, 14.789632, 298, 122, diff, 0, 13.218836, 1, 3435619, -9.6, 3000, diff
306, 0, 0.5, 0, spatio, SS03.asc, 541, mir, 0, -9.6, -9.6, 1, 6.0, 8.567927, 50, 419, 0, 0.523599, 14, 500, 0, -9.6, 0.5, 100, 3436656, 4.0, 4.0, 0.034907, 10.924122, 299, 47, diff, 0, 12.494919, 1, 3441382, -9.6, 3000, diff
199, 0, 0.5, 1, spatio, SS03.asc, 1275, mir, 0, -9.6, -9.6, 0, 6.0, 11.847295, 50, 313, 0, 0.523599, 304, 500, 1, -9.6, 0.5, 100, 3442740, 4.0, 4.0, -0.034907, 15.774286, 300, 47, diff, 0, 14.203489, 0, 3448096, -9.6, 3000, diff
262, 0, 0.5, 1, retino, SS03.asc, 887, act, 0, -9.6, -9.6, 2, 6.0, 7.906953, 50, 375, 0, 0.523599, 290, 500, 1, -9.6, 0.5, 100, 3449528, 4.0, 4.0, 0.034907, 11.833944, 301, 122, diff, 0, 13.404741, 1, 3454562, -9.6, 3000, diff
174, 0, 0.5, 0, retino, SS03.asc, 712, mir, 0, -9.6, -9.6, 2, 6.0, 10.166768, 50, 287, 0, -0.523599, 309, 500, 1, -9.6, 0.5, 100, 3455595, 4.0, 4.0, 0.034907, 12.522963, 302, 122, same, 0, 15.664556, 0, 3460375, -9.6, 3000, diff
201, 0, 0.5, 1, retino, SS03.asc, 734, mir, 0, -9.6, -9.6, 3, 6.0, 11.7844, 50, 314, 0, 0.523599, 199, 500, 0, -9.6, 0.5, 100, 3461409, 4.0, 4.0, 0.034907, 15.71139, 303, 47, diff, 0, 18.852983, 1, 3466224, -9.6, 3000, diff
313, 0, 0.5, 0, retino, SS03.asc, 636, mir, 0, -9.6, -9.6, 2, 6.0, 8.466873, 50, 427, 0, 0.523599, 75, 500, 1, -9.6, 0.5, 100, 3467317, 4.0, 4.0, 0.034907, 10.823069, 304, 122, diff, 0, 13.964661, 1, 3472151, -9.6, 3000, diff
173, 0, 0.5, 0, retino, SS03.asc, 940, mir, 0, -9.6, -9.6, 2, 6.0, 9.599945, 50, 286, 0, -0.523599, 9, 500, 1, -9.6, 0.5, 100, 3473186, 4.0, 4.0, -0.034907, 11.95614, 305, 47, same, 0, 15.097732, 1, 3478194, -9.6, 3000, diff
212, 0, 0.5, 0, retino, SS03.asc, 638, act, 0, -9.6, -9.6, 3, 6.0, 6.632944, 50, 326, 0, 0.523599, 291, 500, 1, -9.6, 0.5, 100, 3479230, 4.0, 4.0, 0.034907, 8.989139, 306, 122, diff, 0, 13.701528, 1, 3483967, -9.6, 3000, diff
177, 0, 0.5, 1, retino, SS03.asc, 752, act, 0, -9.6, -9.6, 2, 6.0, 10.34088, 50, 291, 0, 0.523599, 157, 500, 1, -9.6, 0.5, 100, 3485001, 4.0, 4.0, -0.034907, 14.267871, 307, 47, same, 0, 15.838667, 0, 3489818, -9.6, 3000, same
166, 0, 0.5, 0, spatio, SS03.asc, 579, mir, 0, -9.6, -9.6, 1, 6.0, 6.870142, 50, 278, 0, -0.523599, 159, 500, 1, -9.6, 0.5, 100, 3490853, 4.0, 4.0, 0.034907, 9.226337, 308, 122, diff, 0, 10.797133, 0, 3495476, -9.6, 3000, diff
-1, 0, 0.5, 0, retino, SS03.asc, 4771, act, 0, -9.6, -9.6, 3, 6.0, 6.407825, 50, 1153, 0, 0.523599, 112, 500, 1, -9.6, 0.5, 100, 3496511, 4.0, 4.0, -0.034907, 8.76402, 309, 47, diff, 0, 13.476409, 0, 3506213, -9.6, 3000, diff
269, 0, 0.5, 0, retino, SS03.asc, 657, mir, 0, -9.6, -9.6, 2, 6.0, 10.470889, 50, 383, 0, 0.523599, 21, 500, 1, -9.6, 0.5, 100, 3507247, 4.0, 4.0, -0.034907, 12.827084, 310, 47, diff, 0, 15.968677, 0, 3512064, -9.6, 3000, same
179, 0, 0.5, 0, spatio, SS03.asc, 639, mir, 0, -9.6, -9.6, 1, 6.0, 8.757764, 50, 292, 0, -0.523599, 243, 500, 1, -9.6, 0.5, 100, 3513100, 4.0, 4.0, -0.034907, 11.113958, 311, 47, diff, 0, 12.684754, 1, 3517799, -9.6, 3000, diff
470, 0, 0.5, 1, spatio, SS03.asc, 713, mir, 0, -9.6, -9.6, 0, 6.0, 12.376343, 50, 582, 0, 0.523599, 297, 500, 1, -9.6, 0.5, 100, 3518834, 4.0, 4.0, 0.034907, 16.303333, 312, 122, diff, 0, 14.732537, 1, 3523897, -9.6, 3000, diff
185, 0, 0.5, 0, retino, SS03.asc, 665, mir, 0, -9.6, -9.6, 2, 6.0, 8.687199, 50, 299, 0, -0.523599, 189, 500, 0, -9.6, 0.5, 100, 3524933, 4.0, 4.0, -0.034907, 11.043393, 313, 122, same, 0, 14.184985, 1, 3529671, -9.6, 3000, diff
233, 0, 0.5, 1, spatio, SS03.asc, 525, mir, 0, -9.6, -9.6, 0, 6.0, 12.421213, 50, 347, 0, -0.523599, 117, 500, 0, -9.6, 0.5, 100, 3530707, 4.0, 4.0, -0.034907, 16.348204, 314, 122, diff, 0, 14.777408, 1, 3535366, -9.6, 3000, diff
350, 0, 0.5, 1, retino, SS03.asc, 664, mir, 0, -9.6, -9.6, 3, 6.0, 10.612595, 50, 464, 0, 0.523599, 334, 500, 0, -9.6, 0.5, 100, 3536420, 4.0, 4.0, 0.034907, 14.539586, 315, 47, diff, 0, 17.681179, 1, 3541332, -9.6, 3000, same
-1, 0, 0.5, 1, spatio, SS03.asc, 676, mir, 0, -9.6, -9.6, 0, 6.0, 8.435042, 50, 411, 0, -0.523599, 135, 500, 1, -9.6, 0.5, 100, 3543202, 4.0, 4.0, 0.034907, 12.362034, 316, 122, diff, 0, 10.791237, 0, 3548070, -9.6, 3000, diff
154, 0, 0.5, 1, spatio, SS03.asc, 897, mir, 0, -9.6, -9.6, 0, 6.0, 10.338963, 50, 267, 0, -0.523599, 61, 500, 1, -9.6, 0.5, 100, 3549105, 4.0, 4.0, 0.034907, 14.265953, 317, 122, diff, 0, 12.695157, 0, 3554036, -9.6, 3000, diff
202, 0, 0.5, 0, spatio, SS03.asc, 510, act, 0, -9.6, -9.6, 0, 6.0, 8.373681, 50, 313, 0, -0.523599, 330, 500, 1, -9.6, 0.5, 100, 3555396, 4.0, 4.0, 0.034907, 10.729876, 318, 122, same, 0, 10.729876, 0, 3560002, -9.6, 3000, diff
274, 0, 0.5, 0, spatio, SS03.asc, 605, act, 0, -9.6, -9.6, 0, 6.0, 10.607992, 50, 388, 0, 0.523599, 50, 500, 0, -9.6, 0.5, 100, 3561036, 4.0, 4.0, 0.034907, 12.964188, 319, 47, diff, 0, 12.964188, 1, 3565815, -9.6, 3000, diff
193, 0, 0.5, 0, spatio, SS03.asc, 737, act, 0, -9.6, -9.6, 0, 6.0, 6.417221, 50, 304, 0, -0.523599, 340, 500, 1, -9.6, 0.5, 100, 3572592, 4.0, 4.0, 0.034907, 8.773416, 320, 122, diff, 0, 8.773416, 0, 3577401, -9.6, 3000, diff
271, 0, 0.5, 1, spatio, SS03.asc, 548, act, 0, -9.6, -9.6, 1, 6.0, 8.389022, 50, 385, 0, 0.523599, 217, 500, 1, -9.6, 0.5, 100, 3578437, 4.0, 4.0, -0.034907, 12.316012, 321, 47, diff, 0, 12.316012, 0, 3583137, -9.6, 3000, diff
157, 0, 0.5, 1, retino, SS03.asc, 508, act, 0, -9.6, -9.6, 2, 6.0, 11.276254, 50, 269, 0, -0.523599, 269, 500, 0, -9.6, 0.5, 100, 3584174, 4.0, 4.0, -0.034907, 15.203244, 322, 122, same, 0, 16.77404, 1, 3588718, -9.6, 3000, same
247, 0, 0.5, 1, spatio, SS03.asc, 375, act, 0, -9.6, -9.6, 1, 6.0, 7.822007, 50, 359, 0, -0.523599, 111, 500, 1, -9.6, 0.5, 100, 3589758, 4.0, 4.0, -0.034907, 11.748998, 323, 47, diff, 0, 11.748998, 1, 3594309, -9.6, 3000, diff
169, 0, 0.5, 0, spatio, SS03.asc, 528, mir, 0, -9.6, -9.6, 1, 6.0, 11.626779, 50, 283, 0, -0.523599, 26, 500, 1, -9.6, 0.5, 100, 3595342, 4.0, 4.0, 0.034907, 13.982973, 324, 122, diff, 0, 15.55377, 0, 3599919, -9.6, 3000, diff
348, 0, 0.5, 0, spatio, SS03.asc, 568, mir, 0, -9.6, -9.6, 1, 6.0, 8.784801, 50, 462, 0, -0.523599, 380, 500, 0, -9.6, 0.5, 100, 3600954, 4.0, 4.0, 0.034907, 11.140995, 325, 47, diff, 0, 12.711792, 0, 3605770, -9.6, 3000, diff
31, 0, 0.5, 1, retino, SS03.asc, 589, mir, 0, -9.6, -9.6, 3, 6.0, 10.540112, 50, 142, 0, 0.523599, 93, 500, 1, -9.6, 0.5, 100, 3606804, 4.0, 4.0, -0.034907, 14.467103, 326, 47, diff, 0, 17.608696, 0, 3611314, -9.6, 3000, same
193, 0, 0.5, 0, retino, SS03.asc, 548, act, 0, -9.6, -9.6, 3, 6.0, 6.789606, 50, 307, 0, -0.523599, 177, 500, 1, -9.6, 0.5, 100, 3612349, 4.0, 4.0, 0.034907, 9.145801, 327, 122, diff, 0, 13.85819, 0, 3616972, -9.6, 3000, diff
140, 0, 0.5, 1, spatio, SS03.asc, 516, act, 0, -9.6, -9.6, 1, 6.0, 6.445409, 50, 254, 0, 0.523599, 167, 500, 1, -9.6, 0.5, 100, 3618008, 4.0, 4.0, 0.034907, 10.372399, 328, 122, diff, 0, 10.372399, 1, 3622552, -9.6, 3000, same
189, 0, 0.5, 1, spatio, SS03.asc, 422, act, 0, -9.6, -9.6, 1, 6.0, 7.132462, 50, 303, 0, -0.523599, 19, 500, 1, -9.6, 0.5, 100, 3623590, 4.0, 4.0, -0.034907, 11.059452, 329, 47, diff, 0, 11.059452, 1, 3628095, -9.6, 3000, diff
166, 0, 0.5, 1, spatio, SS03.asc, 619, act, 0, -9.6, -9.6, 1, 6.0, 9.823529, 50, 281, 0, -0.523599, 68, 500, 1, -9.6, 0.5, 100, 3629131, 4.0, 4.0, 0.034907, 13.75052, 330, 122, diff, 0, 13.75052, 0, 3633809, -9.6, 3000, diff
228, 0, 0.5, 0, retino, SS03.asc, 685, mir, 0, -9.6, -9.6, 2, 6.0, 11.996096, 50, 341, 0, -0.523599, 218, 500, 1, -9.6, 0.5, 100, 3634857, 4.0, 4.0, 0.034907, 14.35229, 331, 122, diff, 0, 17.493883, 0, 3639698, -9.6, 3000, diff
191, 0, 0.5, 1, retino, SS03.asc, 412, act, 0, -9.6, -9.6, 2, 6.0, 8.306952, 50, 305, 0, 0.523599, 349, 500, 0, -9.6, 0.5, 100, 3640733, 4.0, 4.0, 0.034907, 12.233942, 332, 47, diff, 0, 13.804738, 1, 3645240, -9.6, 3000, diff
172, 0, 0.5, 1, retino, SS03.asc, 641, act, 0, -9.6, -9.6, 2, 6.0, 10.049415, 50, 285, 0, 0.523599, 364, 500, 1, -9.6, 0.5, 100, 3646199, 4.0, 4.0, -0.034907, 13.976406, 333, 47, same, 0, 15.547202, 0, 3650898, -9.6, 3000, diff
188, 0, 0.5, 0, retino, SS03.asc, 742, act, 0, -9.6, -9.6, 3, 6.0, 12.501558, 50, 302, 0, 0.523599, 228, 500, 1, -9.6, 0.5, 100, 3651932, 4.0, 4.0, -0.034907, 14.857753, 334, 47, diff, 0, 19.570141, 0, 3656749, -9.6, 3000, diff
181, 0, 0.5, 1, retino, SS03.asc, 590, act, 0, -9.6, -9.6, 2, 6.0, 9.301577, 50, 296, 0, 0.523599, 328, 500, 1, -9.6, 0.5, 100, 3657793, 4.0, 4.0, -0.034907, 13.228567, 335, 47, same, 0, 14.799364, 0, 3662446, -9.6, 3000, diff
237, 0, 0.5, 1, retino, SS03.asc, 485, act, 0, -9.6, -9.6, 2, 6.0, 6.605523, 50, 349, 0, -0.523599, 331, 500, 0, -9.6, 0.5, 100, 3664620, 4.0, 4.0, 0.034907, 10.532514, 336, 47, diff, 0, 12.103311, 0, 3669221, -9.6, 3000, same
225, 0, 0.5, 1, spatio, SS03.asc, 1013, mir, 0, -9.6, -9.6, 0, 6.0, 10.870312, 50, 337, 0, -0.523599, 379, 500, 1, -9.6, 0.5, 100, 3670919, 4.0, 4.0, -0.034907, 14.797302, 337, 47, diff, 0, 13.226506, 1, 3676034, -9.6, 3000, diff
204, 0, 0.5, 0, retino, SS03.asc, 577, mir, 0, -9.6, -9.6, 2, 6.0, 8.914042, 50, 318, 0, -0.523599, 261, 500, 1, -9.6, 0.5, 100, 3677069, 4.0, 4.0, 0.034907, 11.270237, 338, 122, same, 0, 14.41183, 0, 3681731, -9.6, 3000, diff
234, 0, 0.5, 0, retino, SS03.asc, 622, mir, 0, -9.6, -9.6, 2, 6.0, 10.030815, 50, 348, 0, 0.523599, 201, 500, 0, -9.6, 0.5, 100, 3682767, 4.0, 4.0, -0.034907, 12.38701, 339, 122, same, 0, 15.528602, 0, 3687504, -9.6, 3000, diff
319, 0, 0.5, 1, spatio, SS03.asc, 608, act, 0, -9.6, -9.6, 1, 6.0, 7.83658, 50, 431, 0, -0.523599, 194, 500, 1, -9.6, 0.5, 100, 3689128, 4.0, 4.0, 0.034907, 11.763571, 340, 122, diff, 0, 11.763571, 0, 3693933, -9.6, 3000, diff
243, 0, 0.5, 1, spatio, SS03.asc, 615, mir, 0, -9.6, -9.6, 0, 6.0, 10.70176, 50, 357, 0, 0.523599, 57, 500, 1, -9.6, 0.5, 100, 3694967, 4.0, 4.0, 0.034907, 14.628751, 341, 122, diff, 0, 13.057955, 1, 3699707, -9.6, 3000, diff
223, 0, 0.5, 0, retino, SS03.asc, 513, act, 0, -9.6, -9.6, 3, 6.0, 8.447507, 50, 338, 0, -0.523599, 147, 500, 0, -9.6, 0.5, 100, 3700749, 4.0, 4.0, -0.034907, 10.803701, 342, 122, same, 0, 15.51609, 1, 3705366, -9.6, 3000, diff
262, 0, 0.5, 1, retino, SS03.asc, 788, mir, 0, -9.6, -9.6, 3, 6.0, 11.070311, 50, 375, 0, -0.523599, 372, 500, 1, -9.6, 0.5, 100, 3706402, 4.0, 4.0, 0.034907, 14.997301, 343, 122, diff, 0, 18.138893, 0, 3711332, -9.6, 3000, same
202, 0, 0.5, 0, spatio, SS03.asc, 424, act, 0, -9.6, -9.6, 0, 6.0, 7.260745, 50, 316, 0, -0.523599, 205, 500, 1, -9.6, 0.5, 100, 3712368, 4.0, 4.0, 0.034907, 9.616939, 344, 122, same, 0, 9.616939, 0, 3716874, -9.6, 3000, diff
193, 0, 0.5, 0, spatio, SS03.asc, 472, act, 0, -9.6, -9.6, 0, 6.0, 6.833518, 50, 306, 0, 0.523599, 190, 500, 1, -9.6, 0.5, 100, 3717909, 4.0, 4.0, 0.034907, 9.189713, 345, 122, diff, 0, 9.189713, 1, 3722455, -9.6, 3000, diff
205, 0, 0.5, 0, retino, SS03.asc, 692, act, 0, -9.6, -9.6, 3, 6.0, 10.039636, 50, 319, 0, 0.523599, 127, 500, 1, -9.6, 0.5, 100, 3723490, 4.0, 4.0, -0.034907, 12.39583, 346, 47, same, 0, 17.108219, 0, 3728268, -9.6, 3000, same
231, 0, 0.5, 0, retino, SS03.asc, 552, act, 0, -9.6, -9.6, 3, 6.0, 10.360631, 50, 344, 0, -0.523599, 41, 500, 1, -9.6, 0.5, 100, 3729302, 4.0, 4.0, 0.034907, 12.716825, 347, 122, diff, 0, 17.429214, 0, 3733964, -9.6, 3000, same
208, 0, 0.5, 0, spatio, SS03.asc, 572, act, 0, -9.6, -9.6, 0, 6.0, 6.973498, 50, 322, 0, -0.523599, 296, 500, 1, -9.6, 0.5, 100, 3734998, 4.0, 4.0, 0.034907, 9.329692, 348, 122, diff, 0, 9.329692, 0, 3739673, -9.6, 3000, diff
188, 0, 0.5, 1, retino, SS03.asc, 464, mir, 0, -9.6, -9.6, 3, 6.0, 8.936861, 50, 302, 0, 0.523599, 187, 500, 1, -9.6, 0.5, 100, 3740708, 4.0, 4.0, 0.034907, 12.863853, 349, 122, same, 0, 16.005445, 1, 3745241, -9.6, 3000, diff
189, 0, 0.5, 0, spatio, SS03.asc, 553, mir, 0, -9.6, -9.6, 1, 6.0, 6.672445, 50, 303, 0, -0.523599, 320, 500, 1, -9.6, 0.5, 100, 3746276, 4.0, 4.0, 0.034907, 9.02864, 350, 122, diff, 0, 10.599436, 0, 3750899, -9.6, 3000, diff
311, 0, 0.5, 0, spatio, SS03.asc, 537, act, 0, -9.6, -9.6, 0, 6.0, 11.948924, 50, 426, 0, 0.523599, 40, 500, 1, -9.6, 0.5, 100, 3751944, 4.0, 4.0, 0.034907, 14.30512, 351, 122, diff, 0, 14.30512, 1, 3756673, -9.6, 3000, diff
183, 0, 0.5, 1, spatio, SS03.asc, 521, act, 0, -9.6, -9.6, 1, 6.0, 6.563337, 50, 297, 0, 0.523599, 140, 500, 1, -9.6, 0.5, 100, 3757708, 4.0, 4.0, 0.034907, 10.490328, 352, 122, diff, 0, 10.490328, 1, 3762293, -9.6, 3000, same
151, 0, 0.5, 0, spatio, SS03.asc, 429, act, 0, -9.6, -9.6, 0, 6.0, 9.959674, 50, 265, 0, -0.523599, 23, 500, 0, -9.6, 0.5, 100, 3763328, 4.0, 4.0, 0.034907, 12.315868, 353, 47, diff, 0, 12.315868, 0, 3767797, -9.6, 3000, same
180, 0, 0.5, 0, retino, SS03.asc, 633, mir, 0, -9.6, -9.6, 2, 6.0, 12.461289, 50, 310, 0, 0.523599, 377, 500, 0, -9.6, 0.5, 100, 3769284, 4.0, 4.0, 0.034907, 14.817484, 354, 47, diff, 0, 17.959078, 1, 3773993, -9.6, 3000, diff
158, 0, 0.5, 1, spatio, SS03.asc, 817, mir, 0, -9.6, -9.6, 0, 6.0, 9.097742, 50, 271, 0, 0.523599, 262, 500, 1, -9.6, 0.5, 100, 3775065, 4.0, 4.0, -0.034907, 13.024734, 355, 47, diff, 0, 11.453937, 0, 3779920, -9.6, 3000, diff
142, 0, 0.5, 1, retino, SS03.asc, 547, mir, 0, -9.6, -9.6, 3, 6.0, 8.93341, 50, 256, 0, -0.523599, 214, 500, 1, -9.6, 0.5, 100, 3780961, 4.0, 4.0, 0.034907, 12.8604, 356, 122, same, 0, 16.001993, 0, 3785540, -9.6, 3000, diff
230, 0, 0.5, 0, spatio, SS03.asc, 624, mir, 0, -9.6, -9.6, 1, 6.0, 11.69255, 50, 342, 0, 0.523599, 237, 500, 1, -9.6, 0.5, 100, 3786775, 4.0, 4.0, 0.034907, 14.048745, 357, 122, diff, 0, 15.619541, 1, 3791508, -9.6, 3000, diff
251, 0, 0.5, 0, retino, SS03.asc, 495, act, 0, -9.6, -9.6, 3, 6.0, 9.856511, 50, 363, 0, 0.523599, 132, 500, 1, -9.6, 0.5, 100, 3792542, 4.0, 4.0, -0.034907, 12.212706, 358, 47, same, 0, 16.925095, 0, 3797167, -9.6, 3000, same
78, 0, 0.5, 1, retino, SS03.asc, 663, mir, 0, -9.6, -9.6, 3, 6.0, 7.914624, 50, 344, 0, 0.523599, 378, 500, 1, -9.6, 0.5, 100, 3798204, 4.0, 4.0, 0.034907, 11.841615, 359, 122, diff, 0, 14.983208, 1, 3802978, -9.6, 3000, diff
203, 0, 0.5, 1, retino, SS03.asc, 493, mir, 0, -9.6, -9.6, 3, 6.0, 11.222946, 50, 316, 0, -0.523599, 188, 500, 0, -9.6, 0.5, 100, 3804868, 4.0, 4.0, 0.034907, 15.149937, 360, 47, diff, 0, 18.291529, 0, 3809444, -9.6, 3000, same
190, 0, 0.5, 0, spatio, SS03.asc, 590, mir, 0, -9.6, -9.6, 1, 6.0, 6.48165, 50, 304, 0, -0.523599, 7, 500, 0, -9.6, 0.5, 100, 3810480, 4.0, 4.0, -0.034907, 8.837845, 361, 122, diff, 0, 10.408641, 1, 3815141, -9.6, 3000, diff
736, 0, 0.5, 0, retino, SS03.asc, 797, mir, 0, -9.6, -9.6, 2, 6.0, 7.508873, 50, 851, 0, -0.523599, 229, 500, 1, -9.6, 0.5, 100, 3816500, 4.0, 4.0, 0.034907, 9.865067, 362, 122, diff, 0, 13.00666, 0, 3821915, -9.6, 3000, diff
199, 0, 0.5, 0, retino, SS03.asc, 622, act, 0, -9.6, -9.6, 3, 6.0, 10.035417, 50, 312, 0, -0.523599, 305, 500, 1, -9.6, 0.5, 100, 3823338, 4.0, 4.0, 0.034907, 12.391611, 363, 122, same, 0, 17.104, 0, 3828037, -9.6, 3000, same
229, 0, 0.5, 1, retino, SS03.asc, 535, mir, 0, -9.6, -9.6, 3, 6.0, 12.222557, 50, 342, 0, 0.523599, 206, 500, 0, -9.6, 0.5, 100, 3829283, 4.0, 4.0, 0.034907, 16.149548, 364, 47, diff, 0, 19.29114, 1, 3833926, -9.6, 3000, diff
277, 0, 0.5, 0, spatio, SS03.asc, 527, mir, 0, -9.6, -9.6, 1, 6.0, 8.361793, 50, 390, 0, 0.523599, 382, 500, 1, -9.6, 0.5, 100, 3835132, 4.0, 4.0, -0.034907, 10.717987, 365, 47, diff, 0, 12.288784, 0, 3839816, -9.6, 3000, diff
213, 0, 0.5, 0, retino, SS03.asc, 605, mir, 0, -9.6, -9.6, 2, 6.0, 9.571757, 50, 327, 0, -0.523599, 143, 500, 1, -9.6, 0.5, 100, 3840851, 4.0, 4.0, 0.034907, 11.927952, 366, 122, same, 0, 15.069544, 0, 3845550, -9.6, 3000, diff
228, 0, 0.5, 0, spatio, SS03.asc, 746, act, 0, -9.6, -9.6, 0, 6.0, 11.814697, 50, 342, 0, 0.523599, 63, 500, 0, -9.6, 0.5, 100, 3846584, 4.0, 4.0, -0.034907, 14.170892, 367, 122, diff, 0, 14.170892, 0, 3851439, -9.6, 3000, diff
416, 0, 0.5, 1, retino, SS03.asc, 791, act, 0, -9.6, -9.6, 2, 6.0, 8.253261, 50, 528, 0, -0.523599, 225, 500, 0, -9.6, 0.5, 100, 3852474, 4.0, 4.0, -0.034907, 12.180251, 368, 122, diff, 0, 13.751047, 1, 3857559, -9.6, 3000, diff
209, 0, 0.5, 0, retino, SS03.asc, 563, mir, 0, -9.6, -9.6, 2, 6.0, 12.105395, 50, 323, 0, 0.523599, 293, 500, 0, -9.6, 0.5, 100, 3858795, 4.0, 4.0, -0.034907, 14.46159, 369, 122, diff, 0, 17.603182, 0, 3863448, -9.6, 3000, diff
151, 0, 0.5, 1, retino, SS03.asc, 457, mir, 0, -9.6, -9.6, 3, 6.0, 12.017189, 50, 265, 0, -0.523599, 319, 500, 0, -9.6, 0.5, 100, 3864543, 4.0, 4.0, 0.034907, 15.94418, 370, 47, diff, 0, 19.085772, 0, 3869032, -9.6, 3000, diff
155, 0, 0.5, 1, retino, SS03.asc, 579, mir, 0, -9.6, -9.6, 3, 6.0, 8.846162, 50, 268, 1, -0.523599, 131, 500, 1, -9.6, 0.5, 100, 3870068, 4.0, 4.0, -0.034907, 12.773153, 371, 47, same, 0, 15.914745, 1, 3874690, -9.6, 3000, diff
687, 0, 0.5, 1, spatio, SS03.asc, 770, mir, 0, -9.6, -9.6, 0, 6.0, 12.234062, 50, 800, 0, 0.523599, 84, 500, 0, -9.6, 0.5, 100, 3876011, 4.0, 4.0, -0.034907, 16.161053, 372, 122, diff, 0, 14.590257, 0, 3881397, -9.6, 3000, diff
167, 0, 0.5, 1, spatio, SS03.asc, 700, act, 0, -9.6, -9.6, 1, 6.0, 9.115767, 50, 281, 0, -0.523599, 165, 500, 1, -9.6, 0.5, 100, 3882438, 4.0, 4.0, 0.034907, 13.042758, 373, 122, diff, 0, 13.042758, 0, 3887200, -9.6, 3000, diff
208, 0, 0.5, 0, spatio, SS03.asc, 613, mir, 0, -9.6, -9.6, 1, 6.0, 10.019885, 50, 322, 0, -0.523599, 123, 500, 0, -9.6, 0.5, 100, 3888235, 4.0, 4.0, 0.034907, 12.37608, 374, 47, diff, 0, 13.946876, 0, 3892984, -9.6, 3000, diff
201, 0, 0.5, 0, retino, SS03.asc, 608, act, 0, -9.6, -9.6, 3, 6.0, 9.793615, 50, 315, 0, -0.523599, 274, 500, 0, -9.6, 0.5, 100, 3894018, 4.0, 4.0, 0.034907, 12.14981, 375, 47, same, 0, 16.8622, 0, 3898710, -9.6, 3000, same
159, 0, 0.5, 1, retino, SS03.asc, 851, act, 0, -9.6, -9.6, 2, 6.0, 6.789031, 50, 272, 0, 0.523599, 184, 500, 1, -9.6, 0.5, 100, 3899748, 4.0, 4.0, -0.034907, 10.716022, 376, 47, diff, 0, 12.286819, 0, 3904639, -9.6, 3000, same
198, 0, 0.5, 0, spatio, SS03.asc, 465, mir, 0, -9.6, -9.6, 1, 6.0, 9.835034, 50, 312, 0, 0.523599, 239, 500, 1, -9.6, 0.5, 100, 3905676, 4.0, 4.0, -0.034907, 12.191229, 377, 47, diff, 0, 13.762026, 0, 3910219, -9.6, 3000, diff
157, 0, 0.5, 1, spatio, SS03.asc, 461, act, 0, -9.6, -9.6, 1, 6.0, 7.755277, 50, 270, 0, 0.523599, 136, 500, 1, -9.6, 0.5, 100, 3911255, 4.0, 4.0, -0.034907, 11.682267, 378, 47, diff, 0, 11.682267, 0, 3915763, -9.6, 3000, diff
148, 0, 0.5, 0, retino, SS03.asc, 405, act, 0, -9.6, -9.6, 3, 6.0, 11.784783, 50, 261, 0, 0.523599, 46, 500, 0, -9.6, 0.5, 100, 3916797, 4.0, 4.0, 0.034907, 14.140978, 379, 47, diff, 0, 18.853367, 1, 3921229, -9.6, 3000, diff
238, 0, 0.5, 1, retino, SS03.asc, 622, mir, 0, -9.6, -9.6, 3, 6.0, 8.942805, 50, 351, 0, 0.523599, 186, 500, 0, -9.6, 0.5, 100, 3922263, 4.0, 4.0, 0.034907, 12.869797, 380, 47, same, 0, 16.011389, 1, 3927003, -9.6, 3000, diff
177, 0, 0.5, 1, spatio, SS03.asc, 554, mir, 0, -9.6, -9.6, 0, 6.0, 12.06762, 50, 291, 0, 0.523599, 374, 500, 1, -9.6, 0.5, 100, 3928048, 4.0, 4.0, -0.034907, 15.994611, 381, 47, diff, 0, 14.423815, 0, 3932661, -9.6, 3000, diff
193, 0, 0.5, 1, retino, SS03.asc, 503, mir, 0, -9.6, -9.6, 3, 6.0, 8.07167, 50, 306, 0, 0.523599, 207, 500, 1, -9.6, 0.5, 100, 3933704, 4.0, 4.0, 0.034907, 11.998661, 382, 122, diff, 0, 15.140253, 1, 3938281, -9.6, 3000, diff
192, 0, 0.5, 1, retino, SS03.asc, 590, mir, 0, -9.6, -9.6, 3, 6.0, 11.682771, 50, 305, 0, -0.523599, 383, 500, 1, -9.6, 0.5, 100, 3939317, 4.0, 4.0, -0.034907, 15.609761, 383, 47, diff, 0, 18.751354, 1, 3943978, -9.6, 3000, same
162, 0, 0.5, 0, spatio, SS04.asc, 997, act, 0, -9.6, -9.6, 0, 6.0, 8.320374, 50, 275, 0, 0.523599, 0, 500, 1, -9.6, 0.5, 100, 9192965, 4.0, 4.0, 0.034907, 10.676569, 0, 122, same, 0, 10.676569, 1, 9198007, -9.6, 3000, diff
216, 0, 0.5, 0, retino, SS04.asc, 759, act, 0, -9.6, -9.6, 3, 6.0, 12.470303, 50, 330, 0, -0.523599, 195, 500, 1, -9.6, 0.5, 100, 9199197, 4.0, 4.0, 0.034907, 14.826497, 1, 122, diff, 0, 19.538885, 0, 9204052, -9.6, 3000, diff
203, 0, 0.5, 1, retino, SS04.asc, 699, mir, 0, -9.6, -9.6, 3, 6.0, 11.332246, 50, 317, 0, -0.523599, 55, 500, 1, -9.6, 0.5, 100, 9205390, 4.0, 4.0, 0.034907, 15.259236, 2, 122, diff, 0, 18.400829, 0, 9210173, -9.6, 3000, same
163, 0, 0.5, 1, spatio, SS04.asc, 644, act, 0, -9.6, -9.6, 1, 6.0, 8.309444, 50, 276, 0, -0.523599, 4, 500, 1, -9.6, 0.5, 100, 9211264, 4.0, 4.0, 0.034907, 12.236435, 3, 122, diff, 0, 12.236435, 0, 9215951, -9.6, 3000, diff
160, 0, 0.5, 0, retino, SS04.asc, 1012, act, 0, -9.6, -9.6, 3, 6.0, 11.585551, 50, 273, 0, -0.523599, 44, 500, 0, -9.6, 0.5, 100, 9217289, 4.0, 4.0, -0.034907, 13.941747, 4, 122, diff, 0, 18.654135, 1, 9222341, -9.6, 3000, same
154, 0, 0.5, 1, spatio, SS04.asc, 750, act, 0, -9.6, -9.6, 1, 6.0, 9.021616, 50, 270, 0, -0.523599, 101, 500, 1, -9.6, 0.5, 100, 9223944, 4.0, 4.0, 0.034907, 12.948607, 5, 122, diff, 0, 12.948607, 0, 9228778, -9.6, 3000, diff
226, 0, 0.5, 1, spatio, SS04.asc, 741, mir, 0, -9.6, -9.6, 0, 6.0, 9.868591, 50, 339, 0, 0.523599, 249, 500, 1, -9.6, 0.5, 100, 9229812, 4.0, 4.0, 0.034907, 13.795582, 6, 122, diff, 0, 12.224786, 1, 9234661, -9.6, 3000, diff
190, 0, 0.5, 0, spatio, SS04.asc, 746, act, 0, -9.6, -9.6, 0, 6.0, 9.43216, 50, 304, 1, 0.523599, 66, 500, 1, -9.6, 0.5, 100, 9235695, 4.0, 4.0, -0.034907, 11.788355, 7, 47, diff, 0, 11.788355, 0, 9240560, -9.6, 3000, same
-1, 0, 0.5, 1, spatio, SS04.asc, 1015, mir, 0, -9.6, -9.6, 0, 6.0, 7.789984, 50, 102, 1, -0.523599, 54, 500, 1, -9.6, 0.5, 100, 9241594, 4.0, 4.0, -0.034907, 11.716975, 8, 47, diff, 0, 10.146178, 1, 9246529, -9.6, 3000, diff
293, 0, 0.5, 0, retino, SS04.asc, 689, act, 0, -9.6, -9.6, 3, 6.0, 12.302135, 50, 407, 0, 0.523599, 2, 500, 0, -9.6, 0.5, 100, 9247623, 4.0, 4.0, 0.034907, 14.658329, 9, 47, diff, 0, 19.370718, 1, 9252486, -9.6, 3000, diff
-1, 0, 0.5, 0, retino, SS04.asc, 937, mir, 0, -9.6, -9.6, 2, 6.0, 10.4776, 50, 285, 0, -0.523599, 258, 500, 1, -9.6, 0.5, 100, 9254888, 4.0, 4.0, 0.034907, 12.833795, 10, 122, diff, 0, 15.975388, 0, 9259877, -9.6, 3000, same
210, 0, 0.5, 1, spatio, SS04.asc, 689, act, 0, -9.6, -9.6, 1, 6.0, 6.804371, 50, 324, 0, -0.523599, 85, 500, 1, -9.6, 0.5, 100, 9260911, 4.0, 4.0, 0.034907, 10.731362, 11, 122, diff, 0, 10.731362, 0, 9265691, -9.6, 3000, same
192, 0, 0.5, 0, spatio, SS04.asc, 776, act, 0, -9.6, -9.6, 0, 6.0, 11.773853, 50, 307, 0, -0.523599, 131, 500, 1, -9.6, 0.5, 100, 9267771, 4.0, 4.0, -0.034907, 14.130048, 12, 47, diff, 0, 14.130048, 1, 9272620, -9.6, 3000, diff
224, 0, 0.5, 0, retino, SS04.asc, 590, act, 0, -9.6, -9.6, 3, 6.0, 7.586534, 50, 337, 0, 0.523599, 67, 500, 1, -9.6, 0.5, 100, 9273873, 4.0, 4.0, -0.034907, 9.942728, 13, 47, same, 0, 14.655117, 0, 9278566, -9.6, 3000, diff
194, 0, 0.5, 0, retino, SS04.asc, 743, mir, 0, -9.6, -9.6, 2, 6.0, 9.078759, 50, 307, 0, -0.523599, 334, 500, 1, -9.6, 0.5, 100, 9279599, 4.0, 4.0, 0.034907, 11.434954, 14, 122, same, 0, 14.576546, 0, 9284418, -9.6, 3000, diff
-1, 0, 0.5, 0, spatio, SS04.asc, 692, mir, 0, -9.6, -9.6, 1, 6.0, 9.874152, 50, 413, 0, -0.523599, 361, 500, 1, -9.6, 0.5, 100, 9286861, 4.0, 4.0, 0.034907, 12.230347, 15, 122, diff, 0, 13.801143, 0, 9291778, -9.6, 3000, diff
255, 0, 0.5, 1, retino, SS04.asc, 634, mir, 0, -9.6, -9.6, 3, 6.0, 11.445955, 50, 369, 1, 0.523599, 333, 500, 1, -9.6, 0.5, 100, 9295075, 4.0, 4.0, 0.034907, 15.372946, 16, 122, diff, 0, 18.51454, 1, 9299893, -9.6, 3000, same
202, 0, 0.5, 0, retino, SS04.asc, 579, act, 0, -9.6, -9.6, 3, 6.0, 7.200534, 50, 317, 0, -0.523599, 5, 500, 0, -9.6, 0.5, 100, 9300928, 4.0, 4.0, 0.034907, 9.556728, 17, 47, same, 0, 14.269117, 0, 9305638, -9.6, 3000, diff
203, 0, 0.5, 0, spatio, SS04.asc, 684, act, 0, -9.6, -9.6, 0, 6.0, 6.458065, 50, 319, 0, -0.523599, 337, 500, 1, -9.6, 0.5, 100, 9306672, 4.0, 4.0, -0.034907, 8.814259, 18, 47, diff, 0, 8.814259, 1, 9311442, -9.6, 3000, diff
176, 0, 0.5, 1, retino, SS04.asc, 670, act, 0, -9.6, -9.6, 2, 6.0, 9.952004, 50, 290, 0, 0.523599, 63, 500, 1, -9.6, 0.5, 100, 9313711, 4.0, 4.0, -0.034907, 13.878995, 19, 47, same, 0, 15.449791, 0, 9318449, -9.6, 3000, diff
266, 0, 0.5, 0, retino, SS04.asc, 590, act, 0, -9.6, -9.6, 3, 6.0, 6.822012, 50, 382, 0, 0.523599, 344, 500, 1, -9.6, 0.5, 100, 9319463, 4.0, 4.0, -0.034907, 9.178207, 20, 47, diff, 0, 13.890596, 0, 9324202, -9.6, 3000, diff
220, 0, 0.5, 1, retino, SS04.asc, 656, act, 0, -9.6, -9.6, 2, 6.0, 9.043284, 50, 337, 0, -0.523599, 319, 500, 1, -9.6, 0.5, 100, 9325332, 4.0, 4.0, -0.034907, 12.970275, 21, 47, same, 0, 14.541072, 1, 9330091, -9.6, 3000, diff
173, 0, 0.5, 0, spatio, SS04.asc, 797, mir, 0, -9.6, -9.6, 1, 6.0, 11.249024, 50, 286, 0, 0.523599, 16, 500, 0, -9.6, 0.5, 100, 9332303, 4.0, 4.0, 0.034907, 13.605219, 22, 47, diff, 0, 15.176015, 1, 9337152, -9.6, 3000, diff
-1, 0, 0.5, 1, retino, SS04.asc, 1155, act, 0, -9.6, -9.6, 2, 6.0, 7.749716, 50, 471, 0, -0.523599, 82, 500, 1, -9.6, 0.5, 100, 9339613, 4.0, 4.0, 0.034907, 11.676706, 23, 122, diff, 0, 13.247503, 0, 9345006, -9.6, 3000, diff
77, 0, 0.5, 0, retino, SS04.asc, 1112, mir, 0, -9.6, -9.6, 2, 6.0, 10.572902, 50, 104, 0, -0.523599, 340, 500, 1, -9.6, 0.5, 100, 9346914, 4.0, 4.0, -0.034907, 12.929096, 24, 47, diff, 0, 16.070688, 1, 9351897, -9.6, 3000, same
223, 0, 0.5, 1, spatio, SS04.asc, 1048, mir, 0, -9.6, -9.6, 0, 6.0, 9.514422, 50, 336, 0, -0.523599, 215, 500, 1, -9.6, 0.5, 100, 9352931, 4.0, 4.0, 0.034907, 13.441414, 25, 122, diff, 0, 11.870617, 0, 9358142, -9.6, 3000, diff
151, 0, 0.5, 0, spatio, SS04.asc, 738, act, 0, -9.6, -9.6, 0, 6.0, 6.652694, 50, 264, 0, -0.523599, 204, 500, 1, -9.6, 0.5, 100, 9359177, 4.0, 4.0, -0.034907, 9.008889, 26, 47, diff, 0, 9.008889, 1, 9363946, -9.6, 3000, diff
173, 0, 0.5, 1, retino, SS04.asc, 1282, mir, 0, -9.6, -9.6, 3, 6.0, 10.167151, 50, 288, 0, 0.523599, 180, 500, 0, -9.6, 0.5, 100, 9365384, 4.0, 4.0, 0.034907, 14.094142, 27, 47, same, 0, 17.235735, 1, 9370721, -9.6, 3000, diff
149, 0, 0.5, 1, spatio, SS04.asc, 629, act, 0, -9.6, -9.6, 1, 6.0, 8.679337, 50, 263, 0, 0.523599, 141, 500, 1, -9.6, 0.5, 100, 9373506, 4.0, 4.0, -0.034907, 12.606327, 28, 47, diff, 0, 12.606327, 0, 9378167, -9.6, 3000, diff
-1, 0, 0.5, 1, retino, SS04.asc, 729, mir, 0, -9.6, -9.6, 3, 6.0, 6.848283, 50, 421, 1, -0.523599, 10, 500, 1, -9.6, 0.5, 100, 9380170, 4.0, 4.0, -0.034907, 10.775273, 29, 47, diff, 0, 13.916866, 1, 9385135, -9.6, 3000, diff
143, 0, 0.5, 0, retino, SS04.asc, 764, mir, 0, -9.6, -9.6, 2, 6.0, 11.847486, 50, 257, 0, -0.523599, 357, 500, 1, -9.6, 0.5, 100, 9386661, 4.0, 4.0, -0.034907, 14.203682, 30, 47, diff, 0, 17.345274, 1, 9391448, -9.6, 3000, diff
157, 0, 0.5, 0, retino, SS04.asc, 704, act, 0, -9.6, -9.6, 3, 6.0, 9.162363, 50, 270, 1, -0.523599, 239, 500, 1, -9.6, 0.5, 100, 9392482, 4.0, 4.0, 0.034907, 11.518558, 31, 122, same, 0, 16.230947, 0, 9397269, -9.6, 3000, same
261, 0, 0.5, 1, retino, SS04.asc, 736, mir, 0, -9.6, -9.6, 3, 6.0, 6.929586, 50, 376, 0, 0.523599, 105, 500, 1, -9.6, 0.5, 100, 9401468, 4.0, 4.0, 0.034907, 10.856577, 32, 122, diff, 0, 13.99817, 1, 9406346, -9.6, 3000, diff
-1, 0, 0.5, 1, spatio, SS04.asc, 541, act, 0, -9.6, -9.6, 1, 6.0, 9.411835, 50, 355, 0, 0.523599, 342, 500, 1, -9.6, 0.5, 100, 9407381, 4.0, 4.0, 0.034907, 13.338825, 33, 122, diff, 0, 13.338825, 1, 9412043, -9.6, 3000, diff
252, 0, 0.5, 0, spatio, SS04.asc, 775, mir, 0, -9.6, -9.6, 1, 6.0, 11.747775, 50, 366, 1, -0.523599, 190, 500, 1, -9.6, 0.5, 100, 9419065, 4.0, 4.0, 0.034907, 14.10397, 34, 122, diff, 0, 15.674766, 0, 9424019, -9.6, 3000, diff
162, 0, 0.5, 0, spatio, SS04.asc, 627, mir, 0, -9.6, -9.6, 1, 6.0, 6.800153, 50, 276, 0, 0.523599, 322, 500, 1, -9.6, 0.5, 100, 9425780, 4.0, 4.0, 0.034907, 9.156347, 35, 122, diff, 0, 10.727143, 1, 9430450, -9.6, 3000, diff
195, 0, 0.5, 0, spatio, SS04.asc, 669, mir, 0, -9.6, -9.6, 1, 6.0, 6.30773, 50, 309, 0, 0.523599, 202, 500, 1, -9.6, 0.5, 100, 9431903, 4.0, 4.0, -0.034907, 8.663924, 36, 47, diff, 0, 10.23472, 0, 9436649, -9.6, 3000, diff
210, 0, 0.5, 0, retino, SS04.asc, 765, act, 0, -9.6, -9.6, 3, 6.0, 9.235229, 50, 324, 0, 0.523599, 273, 500, 0, -9.6, 0.5, 100, 9437683, 4.0, 4.0, 0.034907, 11.591424, 37, 47, same, 0, 16.303814, 1, 9442584, -9.6, 3000, same
226, 0, 0.5, 1, spatio, SS04.asc, 593, mir, 0, -9.6, -9.6, 0, 6.0, 10.863025, 50, 340, 0, -0.523599, 22, 500, 1, -9.6, 0.5, 100, 9444152, 4.0, 4.0, -0.034907, 14.790015, 38, 47, diff, 0, 13.219219, 1, 9448853, -9.6, 3000, diff
192, 0, 0.5, 1, spatio, SS04.asc, 516, act, 0, -9.6, -9.6, 1, 6.0, 7.519036, 50, 306, 0, -0.523599, 311, 500, 1, -9.6, 0.5, 100, 9449886, 4.0, 4.0, -0.034907, 11.446027, 39, 47, diff, 0, 11.446027, 1, 9454473, -9.6, 3000, diff
155, 0, 0.5, 0, retino, SS04.asc, 664, mir, 0, -9.6, -9.6, 2, 6.0, 11.584209, 50, 268, 0, 0.523599, 378, 500, 1, -9.6, 0.5, 100, 9456496, 4.0, 4.0, -0.034907, 13.940404, 40, 47, diff, 0, 17.081997, 0, 9461210, -9.6, 3000, same
154, 0, 0.5, 1, retino, SS04.asc, 810, act, 0, -9.6, -9.6, 2, 6.0, 8.78902, 50, 268, 0, 0.523599, 95, 500, 0, -9.6, 0.5, 100, 9462257, 4.0, 4.0, 0.034907, 12.71601, 41, 47, same, 0, 14.286807, 1, 9467101, -9.6, 3000, diff
163, 0, 0.5, 1, spatio, SS04.asc, 617, mir, 0, -9.6, -9.6, 0, 6.0, 11.921312, 50, 278, 0, -0.523599, 290, 500, 0, -9.6, 0.5, 100, 9468136, 4.0, 4.0, 0.034907, 15.848303, 42, 47, diff, 0, 14.277507, 0, 9472799, -9.6, 3000, diff
266, 0, 0.5, 0, spatio, SS04.asc, 817, act, 0, -9.6, -9.6, 0, 6.0, 9.459773, 50, 380, 0, 0.523599, 133, 500, 1, -9.6, 0.5, 100, 9473917, 4.0, 4.0, 0.034907, 11.815968, 43, 122, diff, 0, 11.815968, 1, 9478884, -9.6, 3000, same
207, 0, 0.5, 1, retino, SS04.asc, 1117, mir, 0, -9.6, -9.6, 3, 6.0, 8.305992, 50, 321, 0, 0.523599, 310, 500, 1, -9.6, 0.5, 100, 9480837, 4.0, 4.0, 0.034907, 12.232984, 44, 122, diff, 0, 15.374577, 1, 9486042, -9.6, 3000, diff
161, 0, 0.5, 0, spatio, SS04.asc, 708, mir, 0, -9.6, -9.6, 1, 6.0, 10.401282, 50, 274, 1, 0.523599, 45, 500, 1, -9.6, 0.5, 100, 9487798, 4.0, 4.0, -0.034907, 12.757477, 45, 47, diff, 0, 14.328274, 0, 9492547, -9.6, 3000, diff
303, 0, 0.5, 0, retino, SS04.asc, 658, act, 0, -9.6, -9.6, 3, 6.0, 6.555475, 50, 417, 0, 0.523599, 376, 500, 0, -9.6, 0.5, 100, 9494019, 4.0, 4.0, 0.034907, 8.91167, 46, 47, diff, 0, 13.624059, 1, 9498861, -9.6, 3000, diff
322, 0, 0.5, 0, spatio, SS04.asc, 691, mir, 0, -9.6, -9.6, 1, 6.0, 12.019489, 50, 437, 1, 0.523599, 363, 500, 1, -9.6, 0.5, 100, 9499894, 4.0, 4.0, -0.034907, 14.375685, 47, 47, diff, 0, 15.946481, 0, 9504789, -9.6, 3000, diff
144, 0, 0.5, 0, retino, SS04.asc, 566, mir, 0, -9.6, -9.6, 2, 6.0, 8.997647, 50, 257, 0, -0.523599, 379, 500, 1, -9.6, 0.5, 100, 9506013, 4.0, 4.0, -0.034907, 11.353842, 48, 47, same, 0, 14.495435, 1, 9510602, -9.6, 3000, diff
212, 0, 0.5, 0, spatio, SS04.asc, 1149, act, 0, -9.6, -9.6, 0, 6.0, 10.004353, 50, 327, 0, -0.523599, 331, 500, 0, -9.6, 0.5, 100, 9511825, 4.0, 4.0, 0.034907, 12.360547, 49, 47, diff, 0, 12.360547, 0, 9517073, -9.6, 3000, same
293, 0, 0.5, 1, retino, SS04.asc, 725, act, 0, -9.6, -9.6, 2, 6.0, 7.264004, 50, 408, 0, 0.523599, 306, 500, 0, -9.6, 0.5, 100, 9518216, 4.0, 4.0, 0.034907, 11.190995, 50, 47, diff, 0, 12.761791, 1, 9523117, -9.6, 3000, diff
843, 0, 0.5, 0, spatio, SS04.asc, 674, mir, 0, -9.6, -9.6, 1, 6.0, 8.982691, 50, 957, 1, -0.523599, 132, 500, 1, -9.6, 0.5, 100, 9524570, 4.0, 4.0, 0.034907, 11.338885, 51, 122, diff, 0, 12.909681, 0, 9529970, -9.6, 3000, diff
178, 0, 0.5, 1, spatio, SS04.asc, 1114, mir, 0, -9.6, -9.6, 0, 6.0, 10.819304, 50, 299, 0, 0.523599, 169, 500, 1, -9.6, 0.5, 100, 9535375, 4.0, 4.0, 0.034907, 14.746296, 52, 122, diff, 0, 13.1755, 1, 9540555, -9.6, 3000, diff
72, 0, 0.5, 0, spatio, SS04.asc, 889, mir, 0, -9.6, -9.6, 1, 6.0, 7.576562, 50, 183, 1, 0.523599, 150, 500, 1, -9.6, 0.5, 100, 9541990, 4.0, 4.0, 0.034907, 9.932756, 53, 122, diff, 0, 11.503553, 1, 9546876, -9.6, 3000, diff
132, 0, 0.5, 1, spatio, SS04.asc, 1048, mir, 0, -9.6, -9.6, 0, 6.0, 11.399359, 50, 246, 1, 0.523599, 118, 500, 0, -9.6, 0.5, 100, 9550778, 4.0, 4.0, -0.034907, 15.32635, 54, 122, diff, 0, 13.755553, 0, 9555888, -9.6, 3000, diff
