sacc_lat, PRACTICE, a_freq, a_loc, cond, FILE, RT, loc, saccade_latency, min_x, min_y, t_loc, j_size, j_angle, p4_dur, SOA, fix_lost, a_tilt, seq_trial_id, p1_dur, correct, max_x, t_freq, p3_dur, TRIAL_START, t_width, a_width, t_tilt, a_angle, TRIALID, response, hemihoriz, OUTLIER, t_angle, congruent, TRIAL_END, max_y, p2_dur, hemivert
270, 0, 0.5, 0, spatio, PP01.asc, 1164, act, 0, -9.6, -9.6, 0, 6.0, 8.928616, 50, 783, 0, 0.523599, 0, 500, 1, -9.6, 0.5, 500, 1848497, 4.0, 4.0, -0.034907, 11.28481, 0, 47, diff, 0, 11.28481, 0, 1854220, -9.6, 3000, same
274, 0, 0.5, 1, spatio, PP01.asc, 817, mir, 0, -9.6, -9.6, 0, 6.0, 11.887564, 50, 788, 0, 0.523599, 159, 500, 1, -9.6, 0.5, 500, 1856545, 4.0, 4.0, 0.034907, 15.814554, 1, 122, diff, 0, 14.243758, 1, 1861930, -9.6, 3000, diff
309, 0, 0.5, 0, retino, PP01.asc, 748, act, 0, -9.6, -9.6, 3, 6.0, 6.351449, 50, 821, 0, -0.523599, 270, 500, 1, -9.6, 0.5, 500, 1863344, 4.0, 4.0, 0.034907, 8.707644, 2, 122, diff, 0, 13.420033, 0, 1868685, -9.6, 3000, diff
281, 0, 0.5, 1, retino, PP01.asc, 962, mir, 0, -9.6, -9.6, 3, 6.0, 7.865726, 50, 789, 0, 0.523599, 185, 500, 0, -9.6, 0.5, 500, 1870440, 4.0, 4.0, -0.034907, 11.792717, 3, 122, diff, 0, 14.93431, 0, 1875975, -9.6, 3000, diff
251, 0, 0.5, 1, spatio, PP01.asc, 641, mir, 0, -9.6, -9.6, 0, 6.0, 10.41087, 50, 765, 1, -0.523599, 319, 500, 1, -9.6, 0.5, 500, 1877426, 4.0, 4.0, 0.034907, 14.337861, 4, 122, diff, 0, 12.767065, 0, 1882616, -9.6, 3000, diff
400, 0, 0.5, 1, spatio, PP01.asc, 1104, mir, 0, -9.6, -9.6, 0, 6.0, 10.181149, 50, 915, 0, 0.523599, 97, 500, 1, -9.6, 0.5, 500, 1884599, 4.0, 4.0, -0.034907, 14.10814, 5, 47, diff, 0, 12.537344, 0, 1890402, -9.6, 3000, diff
206, 0, 0.5, 0, retino, PP01.asc, 590, act, 0, -9.6, -9.6, 3, 6.0, 6.611276, 50, 717, 0, 0.523599, 128, 500, 1, -9.6, 0.5, 500, 1892309, 4.0, 4.0, -0.034907, 8.96747, 6, 47, diff, 0, 13.679859, 0, 1897387, -9.6, 3000, diff
251, 0, 0.5, 0, spatio, PP01.asc, 949, mir, 0, -9.6, -9.6, 1, 6.0, 8.620468, 50, 759, 0, -0.523599, 162, 500, 1, -9.6, 0.5, 500, 1898933, 4.0, 4.0, -0.034907, 10.976663, 7, 47, diff, 0, 12.547459, 1, 1904410, -9.6, 3000, diff
188, 0, 0.5, 0, retino, PP01.asc, 867, mir, 0, -9.6, -9.6, 2, 6.0, 10.337428, 50, 701, 1, -0.523599, 351, 500, 0, -9.6, 0.5, 500, 1905443, 4.0, 4.0, -0.034907, 12.693623, 8, 122, diff, 0, 15.835216, 1, 1910784, -9.6, 3000, same
259, 0, 0.5, 1, retino, PP01.asc, 937, mir, 0, -9.6, -9.6, 3, 6.0, 7.747031, 50, 750, 0, 0.523599, 138, 500, 1, -9.6, 0.5, 500, 1912767, 4.0, 4.0, -0.034907, 11.674022, 9, 47, diff, 0, 14.815615, 0, 1918226, -9.6, 3000, diff
189, 0, 0.5, 0, spatio, PP01.asc, 765, act, 0, -9.6, -9.6, 0, 6.0, 11.327068, 50, 702, 0, -0.523599, 199, 500, 1, -9.6, 0.5, 500, 1919270, 4.0, 4.0, 0.034907, 13.683263, 10, 122, diff, 0, 13.683263, 0, 1924561, -9.6, 3000, diff
261, 0, 0.5, 1, spatio, PP01.asc, 758, mir, 0, -9.6, -9.6, 0, 6.0, 8.939929, 50, 774, 0, 0.523599, 146, 500, 1, -9.6, 0.5, 500, 1925594, 4.0, 4.0, 0.034907, 12.86692, 11, 122, diff, 0, 11.296124, 1, 1930897, -9.6, 3000, diff
225, 0, 0.5, 1, spatio, PP01.asc, 1305, act, 0, -9.6, -9.6, 1, 6.0, 6.465734, 50, 739, 0, -0.523599, 41, 500, 0, -9.6, 0.5, 500, 1932899, 4.0, 4.0, -0.034907, 10.392726, 12, 122, diff, 0, 10.392726, 1, 1938722, -9.6, 3000, same
233, 0, 0.5, 1, retino, PP01.asc, 672, mir, 0, -9.6, -9.6, 3, 6.0, 12.234446, 50, 747, 0, 0.523599, 341, 500, 1, -9.6, 0.5, 500, 1940193, 4.0, 4.0, -0.034907, 16.161436, 13, 47, diff, 0, 19.303028, 0, 1945401, -9.6, 3000, diff
206, 0, 0.5, 1, retino, PP01.asc, 706, act, 0, -9.6, -9.6, 2, 6.0, 7.36084, 50, 719, 0, -0.523599, 222, 500, 1, -9.6, 0.5, 500, 1946909, 4.0, 4.0, 0.034907, 11.28783, 14, 122, diff, 0, 12.858627, 0, 1952118, -9.6, 3000, diff
222, 0, 0.5, 1, retino, PP01.asc, 582, mir, 0, -9.6, -9.6, 3, 6.0, 11.133397, 50, 735, 1, 0.523599, 362, 500, 1, -9.6, 0.5, 500, 1953930, 4.0, 4.0, 0.034907, 15.060388, 15, 122, diff, 0, 18.201981, 1, 1959027, -9.6, 3000, same
181, 0, 0.5, 1, spatio, PP01.asc, 591, act, 0, -9.6, -9.6, 1, 6.0, 9.115192, 50, 693, 0, 0.523599, 377, 500, 1, -9.6, 0.5, 500, 1960348, 4.0, 4.0, -0.034907, 13.042183, 16, 47, diff, 0, 13.042183, 0, 1965401, -9.6, 3000, diff
218, 0, 0.5, 0, spatio, PP01.asc, 600, act, 0, -9.6, -9.6, 0, 6.0, 9.657854, 50, 728, 0, -0.523599, 247, 500, 0, -9.6, 0.5, 500, 1967403, 4.0, 4.0, -0.034907, 12.014049, 17, 122, diff, 0, 12.014049, 1, 1972501, -9.6, 3000, same
163, 0, 0.5, 1, spatio, PP01.asc, 633, act, 0, -9.6, -9.6, 1, 6.0, 12.137226, 50, 677, 0, 0.523599, 264, 500, 1, -9.6, 0.5, 500, 1973838, 4.0, 4.0, 0.034907, 16.064217, 18, 122, diff, 0, 16.064217, 1, 1978914, -9.6, 3000, same
236, 0, 0.5, 1, spatio, PP01.asc, 540, act, 0, -9.6, -9.6, 1, 6.0, 7.812419, 50, 747, 0, 0.523599, 163, 500, 1, -9.6, 0.5, 500, 1980187, 4.0, 4.0, 0.034907, 11.73941, 19, 122, diff, 0, 11.73941, 1, 1985252, -9.6, 3000, diff
143, 0, 0.5, 0, spatio, PP01.asc, 668, mir, 0, -9.6, -9.6, 1, 6.0, 12.266085, 50, 656, 0, -0.523599, 243, 500, 1, -9.6, 0.5, 500, 1986684, 4.0, 4.0, 0.034907, 14.622279, 20, 122, diff, 0, 16.193075, 0, 1991777, -9.6, 3000, diff
211, 0, 0.5, 0, spatio, PP01.asc, 662, act, 0, -9.6, -9.6, 0, 6.0, 9.374635, 50, 725, 0, -0.523599, 85, 500, 0, -9.6, 0.5, 500, 1993646, 4.0, 4.0, -0.034907, 11.730829, 21, 122, diff, 0, 11.730829, 1, 1998800, -9.6, 3000, same
351, 0, 0.5, 0, retino, PP01.asc, 771, act, 0, -9.6, -9.6, 3, 6.0, 6.787497, 50, 863, 0, -0.523599, 337, 500, 1, -9.6, 0.5, 500, 2000688, 4.0, 4.0, -0.034907, 9.143691, 22, 47, diff, 0, 13.856081, 1, 2006090, -9.6, 3000, diff
344, 0, 0.5, 1, spatio, PP01.asc, 676, mir, 0, -9.6, -9.6, 0, 6.0, 10.745863, 50, 859, 1, -0.523599, 179, 500, 1, -9.6, 0.5, 500, 2007123, 4.0, 4.0, 0.034907, 14.672854, 23, 122, diff, 0, 13.102057, 0, 2012427, -9.6, 3000, diff
280, 0, 0.5, 1, retino, PP01.asc, 744, act, 0, -9.6, -9.6, 2, 6.0, 9.148748, 50, 793, 0, -0.523599, 227, 500, 1, -9.6, 0.5, 500, 2014220, 4.0, 4.0, -0.034907, 13.07574, 24, 47, same, 0, 14.646536, 1, 2019526, -9.6, 3000, diff
239, 0, 0.5, 0, retino, PP01.asc, 615, act, 0, -9.6, -9.6, 3, 6.0, 8.494486, 50, 752, 0, -0.523599, 80, 500, 1, -9.6, 0.5, 500, 2020571, 4.0, 4.0, 0.034907, 10.85068, 25, 122, same, 0, 15.563069, 0, 2025709, -9.6, 3000, diff
195, 0, 0.5, 0, spatio, PP01.asc, 704, mir, 0, -9.6, -9.6, 1, 6.0, 10.321321, 50, 706, 0, -0.523599, 73, 500, 1, -9.6, 0.5, 500, 2028547, 4.0, 4.0, -0.034907, 12.677516, 26, 47, diff, 0, 14.248312, 1, 2033726, -9.6, 3000, diff
186, 0, 0.5, 1, retino, PP01.asc, 601, act, 0, -9.6, -9.6, 2, 6.0, 6.796126, 50, 699, 0, -0.523599, 14, 500, 0, -9.6, 0.5, 500, 2036241, 4.0, 4.0, -0.034907, 10.723117, 27, 122, diff, 0, 12.293913, 1, 2041322, -9.6, 3000, same
200, 0, 0.5, 0, spatio, PP01.asc, 515, act, 0, -9.6, -9.6, 0, 6.0, 10.740302, 50, 713, 0, -0.523599, 204, 500, 1, -9.6, 0.5, 500, 2043001, 4.0, 4.0, 0.034907, 13.096497, 28, 122, diff, 0, 13.096497, 0, 2048001, -9.6, 3000, diff
168, 0, 0.5, 0, retino, PP01.asc, 800, mir, 0, -9.6, -9.6, 2, 6.0, 12.4843, 50, 681, 0, 0.523599, 154, 500, 0, -9.6, 0.5, 500, 2049509, 4.0, 4.0, -0.034907, 14.840495, 29, 122, diff, 0, 17.982088, 0, 2054757, -9.6, 3000, diff
299, 0, 0.5, 0, spatio, PP01.asc, 633, mir, 0, -9.6, -9.6, 1, 6.0, 9.519983, 50, 811, 0, -0.523599, 256, 500, 1, -9.6, 0.5, 500, 2056493, 4.0, 4.0, -0.034907, 11.876178, 30, 47, diff, 0, 13.446975, 1, 2061704, -9.6, 3000, diff
208, 0, 0.5, 1, spatio, PP01.asc, 1049, act, 0, -9.6, -9.6, 1, 6.0, 7.400916, 50, 718, 0, 0.523599, 291, 500, 1, -9.6, 0.5, 500, 2062998, 4.0, 4.0, -0.034907, 11.327908, 31, 47, diff, 0, 11.327908, 0, 2068536, -9.6, 3000, diff
202, 0, 0.5, 0, retino, PP01.asc, 1296, mir, 0, -9.6, -9.6, 2, 6.0, 6.396128, 50, 715, 1, -0.523599, 166, 500, 1, -9.6, 0.5, 500, 2070348, 4.0, 4.0, -0.034907, 8.752322, 32, 47, diff, 0, 11.893915, 1, 2076132, -9.6, 3000, diff
337, 0, 0.5, 1, spatio, PP01.asc, 648, mir, 0, -9.6, -9.6, 0, 6.0, 10.528415, 50, 849, 0, 0.523599, 284, 500, 1, -9.6, 0.5, 500, 2078533, 4.0, 4.0, -0.034907, 14.455406, 33, 47, diff, 0, 12.884609, 0, 2083804, -9.6, 3000, diff
265, 0, 0.5, 0, retino, PP01.asc, 688, act, 0, -9.6, -9.6, 3, 6.0, 7.711557, 50, 776, 0, -0.523599, 364, 500, 1, -9.6, 0.5, 500, 2085939, 4.0, 4.0, -0.034907, 10.067751, 34, 47, same, 0, 14.780141, 1, 2091170, -9.6, 3000, diff
154, 0, 0.5, 0, spatio, PP01.asc, 660, mir, 0, -9.6, -9.6, 1, 6.0, 11.760047, 50, 667, 1, 0.523599, 54, 500, 0, -9.6, 0.5, 500, 2093248, 4.0, 4.0, 0.034907, 14.116241, 35, 47, diff, 0, 15.687038, 1, 2098346, -9.6, 3000, diff
209, 0, 0.5, 1, spatio, PP01.asc, 910, mir, 0, -9.6, -9.6, 0, 6.0, 9.814709, 50, 724, 0, 0.523599, 373, 500, 1, -9.6, 0.5, 500, 2099378, 4.0, 4.0, 0.034907, 13.741699, 36, 122, diff, 0, 12.170903, 1, 2104797, -9.6, 3000, diff
247, 0, 0.5, 1, retino, PP01.asc, 974, act, 0, -9.6, -9.6, 2, 6.0, 6.45979, 50, 761, 0, 0.523599, 35, 500, 1, -9.6, 0.5, 500, 2105810, 4.0, 4.0, -0.034907, 10.386781, 37, 47, diff, 0, 11.957578, 0, 2111323, -9.6, 3000, same
311, 0, 0.5, 0, spatio, PP01.asc, 783, act, 0, -9.6, -9.6, 0, 6.0, 9.469744, 50, 824, 0, 0.523599, 217, 500, 1, -9.6, 0.5, 500, 2113212, 4.0, 4.0, -0.034907, 11.825938, 38, 47, diff, 0, 11.825938, 0, 2118592, -9.6, 3000, same
314, 0, 0.5, 0, spatio, PP01.asc, 575, mir, 0, -9.6, -9.6, 1, 6.0, 9.396686, 50, 827, 0, -0.523599, 87, 500, 1, -9.6, 0.5, 500, 2120594, 4.0, 4.0, -0.034907, 11.752881, 39, 47, diff, 0, 13.323677, 1, 2125768, -9.6, 3000, diff
279, 0, 0.5, 0, retino, PP01.asc, 545, mir, 0, -9.6, -9.6, 2, 6.0, 7.57081, 50, 792, 1, -0.523599, 255, 500, 1, -9.6, 0.5, 500, 2127572, 4.0, 4.0, -0.034907, 9.927004, 40, 47, diff, 0, 13.068597, 1, 2132677, -9.6, 3000, diff
247, 0, 0.5, 0, retino, PP01.asc, 987, mir, 0, -9.6, -9.6, 2, 6.0, 10.264946, 50, 754, 0, 0.523599, 3, 500, 1, -9.6, 0.5, 500, 2134905, 4.0, 4.0, 0.034907, 12.62114, 41, 122, diff, 0, 15.762733, 1, 2140425, -9.6, 3000, same
355, 0, 0.5, 1, retino, PP01.asc, 671, act, 0, -9.6, -9.6, 2, 6.0, 6.298909, 50, 864, 0, 0.523599, 314, 500, 1, -9.6, 0.5, 500, 2141458, 4.0, 4.0, 0.034907, 10.2259, 42, 122, diff, 0, 11.796697, 1, 2146761, -9.6, 3000, same
317, 0, 0.5, 0, spatio, PP01.asc, 716, act, 0, -9.6, -9.6, 0, 6.0, 12.076632, 50, 831, 0, 0.523599, 168, 500, 1, -9.6, 0.5, 500, 2148648, 4.0, 4.0, 0.034907, 14.432827, 43, 122, diff, 0, 14.432827, 1, 2153975, -9.6, 3000, diff
337, 0, 0.5, 0, retino, PP01.asc, 720, mir, 0, -9.6, -9.6, 2, 6.0, 9.11826, 50, 851, 0, -0.523599, 192, 500, 1, -9.6, 0.5, 500, 2155723, 4.0, 4.0, 0.034907, 11.474455, 44, 122, same, 0, 14.616047, 0, 2161075, -9.6, 3000, diff
188, 0, 0.5, 1, spatio, PP01.asc, 701, mir, 0, -9.6, -9.6, 0, 6.0, 8.86994, 50, 702, 0, 0.523599, 330, 500, 1, -9.6, 0.5, 500, 2162602, 4.0, 4.0, -0.034907, 12.79693, 45, 47, diff, 0, 11.226134, 0, 2167772, -9.6, 3000, diff
151, 0, 0.5, 1, retino, PP01.asc, 720, act, 0, -9.6, -9.6, 2, 6.0, 12.268386, 50, 664, 0, 0.523599, 9, 500, 1, -9.6, 0.5, 500, 2169872, 4.0, 4.0, 0.034907, 16.195377, 46, 122, diff, 0, 17.766172, 1, 2175025, -9.6, 3000, same
353, 0, 0.5, 1, retino, PP01.asc, 727, act, 0, -9.6, -9.6, 2, 6.0, 9.54913, 50, 867, 0, -0.523599, 19, 500, 1, -9.6, 0.5, 500, 2176496, 4.0, 4.0, 0.034907, 13.476121, 47, 122, same, 0, 15.046917, 0, 2181857, -9.6, 3000, diff
172, 0, 0.5, 0, retino, PP01.asc, 682, act, 0, -9.6, -9.6, 3, 6.0, 6.646942, 50, 685, 0, 0.523599, 74, 500, 1, -9.6, 0.5, 500, 2183783, 4.0, 4.0, -0.034907, 9.003136, 48, 47, diff, 0, 13.715526, 0, 2188919, -9.6, 3000, diff
352, 0, 0.5, 0, spatio, PP01.asc, 751, mir, 0, -9.6, -9.6, 1, 6.0, 8.790745, 50, 865, 0, -0.523599, 249, 500, 1, -9.6, 0.5, 500, 2189953, 4.0, 4.0, 0.034907, 11.146939, 49, 122, diff, 0, 12.717736, 0, 2195334, -9.6, 3000, diff
281, 0, 0.5, 1, retino, PP01.asc, 1009, act, 0, -9.6, -9.6, 2, 6.0, 10.650754, 50, 794, 0, 0.523599, 335, 500, 0, -9.6, 0.5, 500, 2197623, 4.0, 4.0, 0.034907, 14.577744, 50, 47, same, 0, 16.14854, 1, 2203197, -9.6, 3000, same
308, 0, 0.5, 0, retino, PP01.asc, 1059, act, 0, -9.6, -9.6, 3, 6.0, 6.772732, 50, 819, 0, -0.523599, 305, 500, 1, -9.6, 0.5, 500, 2204913, 4.0, 4.0, -0.034907, 9.128926, 51, 47, diff, 0, 13.841315, 1, 2210563, -9.6, 3000, diff
150, 0, 0.5, 0, retino, PP01.asc, 895, act, 0, -9.6, -9.6, 3, 6.0, 12.495421, 50, 661, 0, 0.523599, 181, 500, 0, -9.6, 0.5, 500, 2211919, 4.0, 4.0, 0.034907, 14.851616, 52, 47, diff, 0, 19.564005, 1, 2217243, -9.6, 3000, diff
185, 0, 0.5, 0, retino, PP01.asc, 614, act, 0, -9.6, -9.6, 3, 6.0, 9.08432, 50, 696, 0, 0.523599, 139, 500, 0, -9.6, 0.5, 500, 2219720, 4.0, 4.0, 0.034907, 11.440515, 53, 47, same, 0, 16.152903, 1, 2224801, -9.6, 3000, same
200, 0, 0.5, 1, retino, PP01.asc, 586, mir, 0, -9.6, -9.6, 3, 6.0, 12.497148, 50, 712, 0, -0.523599, 200, 500, 1, -9.6, 0.5, 500, 2226765, 4.0, 4.0, -0.034907, 16.424139, 54, 47, diff, 0, 19.565731, 1, 2231841, -9.6, 3000, diff
232, 0, 0.5, 0, retino, PP01.asc, 856, mir, 0, -9.6, -9.6, 2, 6.0, 10.618347, 50, 746, 0, -0.523599, 40, 500, 1, -9.6, 0.5, 500, 2233292, 4.0, 4.0, 0.034907, 12.974542, 55, 122, diff, 0, 16.116135, 0, 2238672, -9.6, 3000, same
339, 0, 0.5, 1, retino, PP01.asc, 839, act, 0, -9.6, -9.6, 2, 6.0, 12.478164, 50, 850, 1, -0.523599, 294, 500, 0, -9.6, 0.5, 500, 2239705, 4.0, 4.0, -0.034907, 16.405155, 56, 122, diff, 0, 17.975952, 1, 2245162, -9.6, 3000, same
324, 0, 0.5, 0, retino, PP01.asc, 607, mir, 0, -9.6, -9.6, 2, 6.0, 8.477803, 50, 832, 0, 0.523599, 53, 500, 1, -9.6, 0.5, 500, 2246974, 4.0, 4.0, -0.034907, 10.833998, 57, 47, diff, 0, 13.975591, 0, 2252185, -9.6, 3000, diff
278, 0, 0.5, 0, spatio, PP01.asc, 609, mir, 0, -9.6, -9.6, 1, 6.0, 9.954881, 50, 791, 0, -0.523599, 136, 500, 1, -9.6, 0.5, 500, 2254141, 4.0, 4.0, -0.034907, 12.311075, 58, 47, diff, 0, 13.881871, 1, 2259361, -9.6, 3000, diff
167, 0, 0.5, 0, retino, PP01.asc, 687, act, 0, -9.6, -9.6, 3, 6.0, 6.952788, 50, 679, 0, -0.523599, 250, 500, 0, -9.6, 0.5, 500, 2260395, 4.0, 4.0, 0.034907, 9.308983, 59, 47, diff, 0, 14.021372, 0, 2265545, -9.6, 3000, diff
280, 0, 0.5, 0, spatio, PP01.asc, 598, mir, 0, -9.6, -9.6, 1, 6.0, 10.256317, 50, 793, 0, 0.523599, 132, 500, 1, -9.6, 0.5, 500, 2267509, 4.0, 4.0, -0.034907, 12.612512, 60, 47, diff, 0, 14.183308, 0, 2272682, -9.6, 3000, diff
259, 0, 0.5, 1, retino, PP01.asc, 749, mir, 0, -9.6, -9.6, 3, 6.0, 7.97982, 50, 768, 0, 0.523599, 350, 500, 1, -9.6, 0.5, 500, 2274284, 4.0, 4.0, 0.034907, 11.906811, 61, 122, diff, 0, 15.048404, 1, 2279570, -9.6, 3000, diff
296, 0, 0.5, 0, spatio, PP01.asc, 823, mir, 0, -9.6, -9.6, 1, 6.0, 9.557376, 50, 810, 0, 0.523599, 25, 500, 1, -9.6, 0.5, 500, 2281306, 4.0, 4.0, 0.034907, 11.91357, 62, 122, diff, 0, 13.484366, 1, 2286708, -9.6, 3000, diff
189, 0, 0.5, 1, retino, PP01.asc, 582, mir, 0, -9.6, -9.6, 3, 6.0, 10.473765, 50, 704, 0, -0.523599, 379, 500, 1, -9.6, 0.5, 500, 2288977, 4.0, 4.0, 0.034907, 14.400756, 63, 122, diff, 0, 17.542349, 0, 2294036, -9.6, 3000, same
331, 0, 0.5, 1, spatio, PP01.asc, 906, act, 0, -9.6, -9.6, 1, 6.0, 12.509804, 50, 846, 0, 0.523599, 316, 500, 1, -9.6, 0.5, 500, 2307626, 4.0, 4.0, -0.034907, 16.436794, 64, 47, diff, 0, 16.436794, 0, 2313160, -9.6, 3000, same
404, 0, 0.5, 1, retino, PP01.asc, 1018, mir, 0, -9.6, -9.6, 3, 6.0, 7.408203, 50, 917, 0, 0.523599, 334, 500, 1, -9.6, 0.5, 500, 2314440, 4.0, 4.0, 0.034907, 11.335194, 65, 122, diff, 0, 14.476787, 1, 2320145, -9.6, 3000, diff
247, 0, 0.5, 1, retino, PP01.asc, 721, act, 0, -9.6, -9.6, 2, 6.0, 6.717315, 50, 758, 0, 0.523599, 353, 500, 0, -9.6, 0.5, 500, 2322148, 4.0, 4.0, 0.034907, 10.644306, 66, 47, diff, 0, 12.215102, 1, 2327397, -9.6, 3000, same
214, 0, 0.5, 1, retino, PP01.asc, 920, mir, 0, -9.6, -9.6, 3, 6.0, 10.709046, 50, 728, 0, -0.523599, 301, 500, 1, -9.6, 0.5, 500, 2328430, 4.0, 4.0, -0.034907, 14.636038, 67, 47, diff, 0, 17.77763, 1, 2333848, -9.6, 3000, same
215, 0, 0.5, 0, retino, PP01.asc, 707, mir, 0, -9.6, -9.6, 2, 6.0, 8.561216, 50, 728, 0, 0.523599, 260, 500, 0, -9.6, 0.5, 500, 2335204, 4.0, 4.0, 0.034907, 10.917411, 68, 47, diff, 0, 14.059004, 1, 2340414, -9.6, 3000, diff
198, 0, 0.5, 0, spatio, PP01.asc, 796, mir, 0, -9.6, -9.6, 1, 6.0, 10.052866, 50, 712, 0, 0.523599, 33, 500, 0, -9.6, 0.5, 500, 2342379, 4.0, 4.0, 0.034907, 12.40906, 69, 47, diff, 0, 13.979857, 1, 2347665, -9.6, 3000, diff
264, 0, 0.5, 1, spatio, PP01.asc, 568, mir, 0, -9.6, -9.6, 0, 6.0, 7.144542, 50, 776, 0, -0.523599, 361, 500, 1, -9.6, 0.5, 500, 2348698, 4.0, 4.0, -0.034907, 11.071532, 70, 47, diff, 0, 9.500736, 1, 2353811, -9.6, 3000, diff
213, 0, 0.5, 1, retino, PP01.asc, 1062, mir, 0, -9.6, -9.6, 3, 6.0, 10.107516, 50, 727, 0, -0.523599, 6, 500, 1, -9.6, 0.5, 500, 2358370, 4.0, 4.0, -0.034907, 14.034507, 71, 47, same, 0, 17.1761, 1, 2363927, -9.6, 3000, diff
169, 0, 0.5, 0, spatio, PP01.asc, 964, act, 0, -9.6, -9.6, 0, 6.0, 11.995137, 50, 684, 1, 0.523599, 355, 500, 1, -9.6, 0.5, 500, 2365190, 4.0, 4.0, 0.034907, 14.351332, 72, 122, diff, 0, 14.351332, 1, 2370606, -9.6, 3000, diff
410, 0, 0.5, 0, retino, PP01.asc, 641, act, 0, -9.6, -9.6, 3, 6.0, 12.39897, 50, 924, 0, -0.523599, 359, 500, 1, -9.6, 0.5, 500, 2371916, 4.0, 4.0, 0.034907, 14.755164, 73, 122, diff, 0, 19.467554, 0, 2377248, -9.6, 3000, diff
326, 0, 0.5, 1, spatio, PP01.asc, 1585, act, 0, -9.6, -9.6, 1, 6.0, 8.613949, 50, 833, 0, -0.523599, 67, 500, 0, -9.6, 0.5, 500, 2379459, 4.0, 4.0, 0.034907, 12.540939, 74, 47, diff, 0, 12.540939, 0, 2385645, -9.6, 3000, diff
264, 0, 0.5, 1, retino, PP01.asc, 1142, act, 0, -9.6, -9.6, 2, 6.0, 12.130323, 50, 777, 0, 0.523599, 49, 500, 0, -9.6, 0.5, 500, 2387305, 4.0, 4.0, 0.034907, 16.057314, 75, 47, diff, 0, 17.628111, 1, 2392991, -9.6, 3000, same
298, 0, 0.5, 0, retino, PP01.asc, 682, act, 0, -9.6, -9.6, 3, 6.0, 9.226026, 50, 813, 0, 0.523599, 31, 500, 1, -9.6, 0.5, 500, 2394025, 4.0, 4.0, -0.034907, 11.58222, 76, 47, same, 0, 16.294609, 0, 2399289, -9.6, 3000, same
45, 0, 0.5, 0, spatio, PP01.asc, 611, act, 0, -9.6, -9.6, 0, 6.0, 12.050938, 50, 557, 0, 0.523599, 269, 500, 1, -9.6, 0.5, 500, 2400574, 4.0, 4.0, -0.034907, 14.407132, 77, 47, diff, 0, 14.407132, 0, 2405511, -9.6, 3000, diff
68, 0, 0.5, 0, retino, PP01.asc, 806, act, 0, -9.6, -9.6, 3, 6.0, 7.958919, 50, 579, 0, -0.523599, 82, 500, 0, -9.6, 0.5, 500, 2407343, 4.0, 4.0, -0.034907, 10.315113, 78, 122, same, 0, 15.027502, 1, 2412497, -9.6, 3000, diff
249, 0, 0.5, 0, retino, PP01.asc, 691, mir, 0, -9.6, -9.6, 2, 6.0, 9.997833, 50, 763, 0, -0.523599, 122, 500, 1, -9.6, 0.5, 500, 2413531, 4.0, 4.0, 0.034907, 12.354028, 79, 122, same, 0, 15.495621, 0, 2418759, -9.6, 3000, diff
224, 0, 0.5, 1, spatio, PP01.asc, 552, act, 0, -9.6, -9.6, 1, 6.0, 6.965061, 50, 734, 0, 0.523599, 142, 500, 1, -9.6, 0.5, 500, 2420800, 4.0, 4.0, -0.034907, 10.892052, 80, 47, diff, 0, 10.892052, 0, 2425858, -9.6, 3000, same
265, 0, 0.5, 0, retino, PP01.asc, 819, mir, 0, -9.6, -9.6, 2, 6.0, 9.706367, 50, 778, 0, -0.523599, 8, 500, 1, -9.6, 0.5, 500, 2427937, 4.0, 4.0, -0.034907, 12.062562, 81, 47, same, 0, 15.204155, 1, 2433301, -9.6, 3000, diff
187, 0, 0.5, 0, retino, PP01.asc, 593, act, 0, -9.6, -9.6, 3, 6.0, 9.946635, 50, 701, 0, -0.523599, 176, 500, 1, -9.6, 0.5, 500, 2434335, 4.0, 4.0, 0.034907, 12.30283, 82, 122, same, 0, 17.015219, 0, 2439447, -9.6, 3000, same
241, 0, 0.5, 1, retino, PP01.asc, 1662, mir, 0, -9.6, -9.6, 3, 6.0, 8.170614, 50, 734, 0, 0.523599, 48, 500, 0, -9.6, 0.5, 500, 2441449, 4.0, 4.0, -0.034907, 12.097606, 83, 122, diff, 0, 15.239198, 0, 2447616, -9.6, 3000, diff
188, 0, 0.5, 1, retino, PP01.asc, 837, mir, 0, -9.6, -9.6, 3, 6.0, 11.883536, 50, 701, 0, -0.523599, 368, 500, 0, -9.6, 0.5, 500, 2449713, 4.0, 4.0, 0.034907, 15.810528, 84, 47, diff, 0, 18.95212, 0, 2455021, -9.6, 3000, diff
172, 0, 0.5, 1, retino, PP01.asc, 583, mir, 0, -9.6, -9.6, 3, 6.0, 6.625273, 50, 685, 1, -0.523599, 280, 500, 1, -9.6, 0.5, 500, 2456132, 4.0, 4.0, 0.034907, 10.552264, 85, 122, diff, 0, 13.693857, 0, 2461167, -9.6, 3000, diff
253, 0, 0.5, 0, retino, PP01.asc, 1020, mir, 0, -9.6, -9.6, 2, 6.0, 6.51118, 50, 763, 0, 0.523599, 15, 500, 1, -9.6, 0.5, 500, 2463169, 4.0, 4.0, -0.034907, 8.867374, 86, 47, diff, 0, 12.008967, 0, 2468725, -9.6, 3000, diff
150, 0, 0.5, 1, spatio, PP01.asc, 736, act, 0, -9.6, -9.6, 1, 6.0, 10.673764, 50, 663, 1, 0.523599, 43, 500, 1, -9.6, 0.5, 500, 2469856, 4.0, 4.0, 0.034907, 14.600755, 87, 122, same, 0, 14.600755, 1, 2475023, -9.6, 3000, diff
292, 0, 0.5, 0, retino, PP01.asc, 922, mir, 0, -9.6, -9.6, 2, 6.0, 8.053453, 50, 802, 0, 0.523599, 22, 500, 0, -9.6, 0.5, 500, 2477691, 4.0, 4.0, 0.034907, 10.409648, 88, 47, diff, 0, 13.551241, 1, 2483192, -9.6, 3000, diff
385, 0, 0.5, 1, retino, PP01.asc, 766, act, 0, -9.6, -9.6, 2, 6.0, 11.331861, 50, 832, 0, -0.523599, 325, 500, 1, -9.6, 0.5, 500, 2486335, 4.0, 4.0, -0.034907, 15.258853, 89, 47, same, 0, 16.829649, 1, 2491704, -9.6, 3000, same
184, 0, 0.5, 0, spatio, PP01.asc, 790, mir, 0, -9.6, -9.6, 1, 6.0, 7.465154, 50, 688, 0, -0.523599, 244, 500, 1, -9.6, 0.5, 500, 2494054, 4.0, 4.0, -0.034907, 9.821348, 90, 47, diff, 0, 11.392144, 1, 2499300, -9.6, 3000, diff
225, 0, 0.5, 0, retino, PP01.asc, 663, mir, 0, -9.6, -9.6, 2, 6.0, 10.298311, 50, 738, 0, 0.523599, 317, 500, 1, -9.6, 0.5, 500, 2501188, 4.0, 4.0, -0.034907, 12.654506, 91, 47, diff, 0, 15.796098, 0, 2506362, -9.6, 3000, same
258, 0, 0.5, 1, retino, PP01.asc, 794, act, 0, -9.6, -9.6, 2, 6.0, 8.418168, 50, 649, 1, 0.523599, 300, 500, 1, -9.6, 0.5, 500, 2507832, 4.0, 4.0, -0.034907, 12.34516, 92, 47, diff, 0, 13.915956, 0, 2513041, -9.6, 3000, diff
243, 0, 0.5, 0, spatio, PP01.asc, 736, act, 0, -9.6, -9.6, 0, 6.0, 11.289292, 50, 754, 0, 0.523599, 308, 500, 1, -9.6, 0.5, 500, 2516832, 4.0, 4.0, -0.034907, 13.645487, 93, 47, diff, 0, 13.645487, 0, 2522089, -9.6, 3000, diff
208, 0, 0.5, 0, spatio, PP01.asc, 534, mir, 0, -9.6, -9.6, 1, 6.0, 9.635036, 50, 721, 0, 0.523599, 190, 500, 1, -9.6, 0.5, 500, 2524384, 4.0, 4.0, 0.034907, 11.99123, 94, 122, diff, 0, 13.562027, 1, 2529418, -9.6, 3000, diff
238, 0, 0.5, 0, spatio, PP01.asc, 658, mir, 0, -9.6, -9.6, 1, 6.0, 6.389417, 50, 751, 0, 0.523599, 155, 500, 1, -9.6, 0.5, 500, 2531287, 4.0, 4.0, -0.034907, 8.745611, 95, 47, diff, 0, 10.316407, 0, 2536480, -9.6, 3000, diff
259, 0, 0.5, 0, retino, PP01.asc, 834, act, 0, -9.6, -9.6, 3, 6.0, 8.021238, 50, 744, 0, 0.523599, 213, 500, 1, -9.6, 0.5, 500, 2538350, 4.0, 4.0, 0.034907, 10.377433, 96, 122, same, 0, 15.089822, 1, 2543693, -9.6, 3000, diff
224, 0, 0.5, 0, spatio, PP01.asc, 776, act, 0, -9.6, -9.6, 0, 6.0, 11.615657, 50, 736, 0, -0.523599, 231, 500, 1, -9.6, 0.5, 500, 2545391, 4.0, 4.0, -0.034907, 13.971851, 97, 47, diff, 0, 13.971851, 1, 2550681, -9.6, 3000, diff
380, 0, 0.5, 0, retino, PP01.asc, 591, mir, 0, -9.6, -9.6, 2, 6.0, 9.282401, 50, 889, 0, 0.523599, 46, 500, 1, -9.6, 0.5, 500, 2552095, 4.0, 4.0, -0.034907, 11.638596, 98, 47, same, 0, 14.780189, 0, 2557361, -9.6, 3000, diff
177, 0, 0.5, 0, retino, PP01.asc, 688, mir, 0, -9.6, -9.6, 2, 6.0, 12.444798, 50, 691, 0, 0.523599, 272, 500, 0, -9.6, 0.5, 500, 2558399, 4.0, 4.0, 0.034907, 14.800994, 99, 47, diff, 0, 17.942587, 1, 2563545, -9.6, 3000, diff
298, 0, 0.5, 1, spatio, PP01.asc, 649, act, 0, -9.6, -9.6, 1, 6.0, 7.362182, 50, 807, 0, -0.523599, 320, 500, 0, -9.6, 0.5, 500, 2565482, 4.0, 4.0, 0.034907, 11.289173, 100, 47, diff, 0, 11.289173, 0, 2570722, -9.6, 3000, diff
165, 0, 0.5, 1, retino, PP01.asc, 726, act, 0, -9.6, -9.6, 2, 6.0, 9.54913, 50, 678, 0, -0.523599, 109, 500, 1, -9.6, 0.5, 500, 2573180, 4.0, 4.0, 0.034907, 13.476121, 101, 122, same, 0, 15.046917, 0, 2578356, -9.6, 3000, diff
208, 0, 0.5, 1, retino, PP01.asc, 620, act, 0, -9.6, -9.6, 2, 6.0, 10.842507, 50, 720, 0, 0.523599, 65, 500, 1, -9.6, 0.5, 500, 2579389, 4.0, 4.0, -0.034907, 14.769498, 102, 47, same, 0, 16.340294, 0, 2584502, -9.6, 3000, same
333, 0, 0.5, 0, retino, PP01.asc, 621, mir, 0, -9.6, -9.6, 2, 6.0, 9.219698, 50, 846, 0, -0.523599, 77, 500, 1, -9.6, 0.5, 500, 2586362, 4.0, 4.0, -0.034907, 11.575892, 103, 47, same, 0, 14.717484, 1, 2591602, -9.6, 3000, diff
340, 0, 0.5, 0, spatio, PP01.asc, 820, act, 0, -9.6, -9.6, 0, 6.0, 8.685664, 50, 845, 0, 0.523599, 161, 500, 1, -9.6, 0.5, 500, 2594137, 4.0, 4.0, -0.034907, 11.041859, 104, 47, diff, 0, 11.041859, 0, 2599580, -9.6, 3000, same
178, 0, 0.5, 0, spatio, PP01.asc, 784, mir, 0, -9.6, -9.6, 1, 6.0, 11.131479, 50, 693, 0, -0.523599, 111, 500, 1, -9.6, 0.5, 500, 2601892, 4.0, 4.0, -0.034907, 13.487674, 105, 47, diff, 0, 15.058471, 1, 2607138, -9.6, 3000, diff
174, 0, 0.5, 0, spatio, PP01.asc, 652, act, 0, -9.6, -9.6, 0, 6.0, 12.549305, 50, 686, 0, -0.523599, 150, 500, 0, -9.6, 0.5, 500, 2608173, 4.0, 4.0, -0.034907, 14.905499, 106, 122, diff, 0, 14.905499, 1, 2613283, -9.6, 3000, diff
292, 0, 0.5, 1, spatio, PP01.asc, 833, act, 0, -9.6, -9.6, 1, 6.0, 9.501959, 50, 806, 0, -0.523599, 251, 500, 1, -9.6, 0.5, 500, 2614316, 4.0, 4.0, -0.034907, 13.428949, 107, 47, diff, 0, 13.428949, 1, 2619735, -9.6, 3000, diff
347, 0, 0.5, 1, retino, PP01.asc, 930, act, 0, -9.6, -9.6, 2, 6.0, 6.751447, 50, 855, 0, 0.523599, 313, 500, 1, -9.6, 0.5, 500, 2621737, 4.0, 4.0, 0.034907, 10.678438, 108, 122, diff, 0, 12.249234, 1, 2627293, -9.6, 3000, same
206, 0, 0.5, 0, retino, PP01.asc, 654, mir, 0, -9.6, -9.6, 2, 6.0, 9.995915, 50, 717, 0, 0.523599, 304, 500, 1, -9.6, 0.5, 500, 2629749, 4.0, 4.0, 0.034907, 12.35211, 109, 122, same, 0, 15.493703, 1, 2634889, -9.6, 3000, diff
370, 0, 0.5, 0, spatio, PP01.asc, 683, act, 0, -9.6, -9.6, 0, 6.0, 8.171765, 50, 734, 0, 0.523599, 343, 500, 1, -9.6, 0.5, 500, 2636864, 4.0, 4.0, -0.034907, 10.52796, 110, 47, same, 0, 10.52796, 0, 2642065, -9.6, 3000, diff
276, 0, 0.5, 1, spatio, PP01.asc, 676, mir, 0, -9.6, -9.6, 0, 6.0, 12.023133, 50, 788, 0, -0.523599, 323, 500, 1, -9.6, 0.5, 500, 2644312, 4.0, 4.0, -0.034907, 15.950124, 111, 47, diff, 0, 14.379328, 1, 2649547, -9.6, 3000, diff
173, 0, 0.5, 1, retino, PP01.asc, 894, act, 0, -9.6, -9.6, 2, 6.0, 6.335726, 50, 536, 0, 0.523599, 37, 500, 0, -9.6, 0.5, 500, 2651055, 4.0, 4.0, -0.034907, 10.262716, 112, 122, diff, 0, 11.833513, 0, 2656265, -9.6, 3000, same
181, 0, 0.5, 1, spatio, PP01.asc, 1039, act, 0, -9.6, -9.6, 1, 6.0, 12.21412, 50, 687, 0, -0.523599, 360, 500, 1, -9.6, 0.5, 500, 2658020, 4.0, 4.0, 0.034907, 16.141111, 113, 122, diff, 0, 16.141111, 0, 2663518, -9.6, 3000, same
264, 0, 0.5, 0, spatio, PP01.asc, 973, act, 0, -9.6, -9.6, 0, 6.0, 8.615482, 50, 558, 1, 0.523599, 297, 500, 1, -9.6, 0.5, 500, 2664551, 4.0, 4.0, 0.034907, 10.971677, 114, 122, same, 0, 10.971677, 1, 2669854, -9.6, 3000, diff
310, 0, 0.5, 1, retino, PP01.asc, 952, mir, 0, -9.6, -9.6, 3, 6.0, 9.300809, 50, 824, 0, -0.523599, 282, 500, 0, -9.6, 0.5, 500, 2671515, 4.0, 4.0, -0.034907, 13.2278, 115, 122, same, 0, 16.369392, 1, 2677068, -9.6, 3000, diff
234, 0, 0.5, 1, spatio, PP01.asc, 944, mir, 0, -9.6, -9.6, 0, 6.0, 10.374245, 50, 742, 0, 0.523599, 212, 500, 0, -9.6, 0.5, 500, 2679015, 4.0, 4.0, 0.034907, 14.301236, 116, 47, diff, 0, 12.73044, 1, 2684474, -9.6, 3000, diff
-1, 0, 0.5, 1, retino, PP01.asc, 1213, act, 0, -9.6, -9.6, 2, 6.0, 7.525172, 50, 742, 1, 0.523599, 38, 500, 1, -9.6, 0.5, 500, 2686609, 4.0, 4.0, 0.034907, 11.452164, 117, 122, diff, 0, 13.02296, 1, 2692387, -9.6, 3000, diff
286, 0, 0.5, 1, spatio, PP01.asc, 916, act, 0, -9.6, -9.6, 1, 6.0, 11.154298, 50, 800, 0, -0.523599, 30, 500, 1, -9.6, 0.5, 500, 2694522, 4.0, 4.0, -0.034907, 15.081289, 118, 47, same, 0, 15.081289, 1, 2700010, -9.6, 3000, diff
269, 0, 0.5, 1, retino, PP01.asc, 1049, mir, 0, -9.6, -9.6, 3, 6.0, 8.293337, 50, 777, 0, 0.523599, 324, 500, 1, -9.6, 0.5, 500, 2702618, 4.0, 4.0, 0.034907, 12.220327, 119, 122, diff, 0, 15.36192, 1, 2708216, -9.6, 3000, diff
195, 0, 0.5, 1, spatio, PP01.asc, 680, act, 0, -9.6, -9.6, 1, 6.0, 10.379039, 50, 708, 0, 0.523599, 178, 500, 1, -9.6, 0.5, 500, 2710427, 4.0, 4.0, -0.034907, 14.30603, 120, 47, same, 0, 14.30603, 0, 2715584, -9.6, 3000, diff
264, 0, 0.5, 0, spatio, PP01.asc, 676, mir, 0, -9.6, -9.6, 1, 6.0, 7.898708, 50, 739, 0, -0.523599, 248, 500, 1, -9.6, 0.5, 500, 2716618, 4.0, 4.0, 0.034907, 10.254903, 121, 122, diff, 0, 11.825699, 0, 2721806, -9.6, 3000, diff
232, 0, 0.5, 0, spatio, PP01.asc, 716, mir, 0, -9.6, -9.6, 1, 6.0, 11.119207, 50, 743, 0, -0.523599, 263, 500, 1, -9.6, 0.5, 500, 2722839, 4.0, 4.0, 0.034907, 13.475402, 122, 122, diff, 0, 15.046198, 0, 2728067, -9.6, 3000, diff
355, 0, 0.5, 1, spatio, PP01.asc, 696, act, 0, -9.6, -9.6, 1, 6.0, 6.412619, 50, 866, 0, -0.523599, 208, 500, 1, -9.6, 0.5, 500, 2730202, 4.0, 4.0, 0.034907, 10.33961, 123, 122, diff, 0, 10.33961, 0, 2735548, -9.6, 3000, same
57, 0, 0.5, 1, spatio, PP01.asc, 643, mir, 0, -9.6, -9.6, 0, 6.0, 12.170783, 50, 572, 0, -0.523599, 2, 500, 1, -9.6, 0.5, 500, 2737246, 4.0, 4.0, 0.034907, 16.097775, 124, 122, diff, 0, 14.526978, 0, 2742229, -9.6, 3000, diff
377, 0, 0.5, 0, spatio, PP01.asc, 563, mir, 0, -9.6, -9.6, 1, 6.0, 8.33744, 50, 820, 0, 0.523599, 118, 500, 1, -9.6, 0.5, 500, 2743261, 4.0, 4.0, -0.034907, 10.693635, 125, 47, diff, 0, 12.264431, 0, 2748413, -9.6, 3000, diff
437, 0, 0.5, 1, spatio, PP01.asc, 834, mir, 0, -9.6, -9.6, 0, 6.0, 9.439064, 50, 950, 0, 0.523599, 365, 500, 1, -9.6, 0.5, 500, 2749459, 4.0, 4.0, -0.034907, 13.366055, 126, 47, diff, 0, 11.795259, 0, 2755016, -9.6, 3000, diff
88, 0, 0.5, 0, spatio, PP01.asc, 740, mir, 0, -9.6, -9.6, 1, 6.0, 11.660144, 50, 601, 0, 0.523599, 144, 500, 1, -9.6, 0.5, 500, 2756050, 4.0, 4.0, -0.034907, 14.016338, 127, 47, diff, 0, 15.587134, 0, 2761162, -9.6, 3000, diff
295, 0, 0.5, 1, spatio, PP01.asc, 1150, mir, 0, -9.6, -9.6, 0, 6.0, 7.281837, 50, 807, 0, -0.523599, 10, 500, 0, -9.6, 0.5, 500, 2776281, 4.0, 4.0, 0.034907, 11.208828, 128, 47, diff, 0, 9.638032, 0, 2782005, -9.6, 3000, diff
198, 0, 0.5, 1, spatio, PP01.asc, 821, mir, 0, -9.6, -9.6, 0, 6.0, 9.770222, 50, 712, 0, -0.523599, 98, 500, 1, -9.6, 0.5, 500, 2783039, 4.0, 4.0, -0.034907, 13.697213, 129, 47, diff, 0, 12.126416, 1, 2788342, -9.6, 3000, diff
244, 0, 0.5, 1, retino, PP01.asc, 627, act, 0, -9.6, -9.6, 2, 6.0, 8.466681, 50, 756, 0, -0.523599, 175, 500, 1, -9.6, 0.5, 500, 2789944, 4.0, 4.0, 0.034907, 12.393673, 130, 122, diff, 0, 13.964469, 0, 2795099, -9.6, 3000, diff
145, 0, 0.5, 0, spatio, PP01.asc, 951, act, 0, -9.6, -9.6, 0, 6.0, 12.34758, 50, 658, 0, 0.523599, 382, 500, 1, -9.6, 0.5, 500, 2796132, 4.0, 4.0, -0.034907, 14.703774, 131, 47, diff, 0, 14.703774, 0, 2801511, -9.6, 3000, diff
158, 0, 0.5, 0, retino, PP01.asc, 751, act, 0, -9.6, -9.6, 3, 6.0, 12.353524, 50, 671, 0, 0.523599, 56, 500, 1, -9.6, 0.5, 500, 2803533, 4.0, 4.0, 0.034907, 14.709719, 132, 122, diff, 0, 19.422108, 1, 2808726, -9.6, 3000, diff
169, 0, 0.5, 1, retino, PP01.asc, 877, act, 0, -9.6, -9.6, 2, 6.0, 11.190731, 50, 683, 0, -0.523599, 257, 500, 1, -9.6, 0.5, 500, 2810260, 4.0, 4.0, -0.034907, 15.117723, 133, 47, same, 0, 16.688519, 1, 2815597, -9.6, 3000, same
444, 0, 0.5, 1, spatio, PP01.asc, 2027, mir, 0, -9.6, -9.6, 0, 6.0, 9.353541, 50, 957, 0, -0.523599, 148, 500, 1, -9.6, 0.5, 500, 2817354, 4.0, 4.0, 0.034907, 13.280533, 134, 122, diff, 0, 11.709736, 0, 2824109, -9.6, 3000, diff
198, 0, 0.5, 1, retino, PP01.asc, 699, mir, 0, -9.6, -9.6, 3, 6.0, 8.794964, 50, 712, 0, -0.523599, 338, 500, 1, -9.6, 0.5, 500, 2825143, 4.0, 4.0, -0.034907, 12.721954, 135, 47, same, 0, 15.863547, 1, 2830332, -9.6, 3000, diff
205, 0, 0.5, 1, retino, PP01.asc, 547, mir, 0, -9.6, -9.6, 3, 6.0, 12.165222, 50, 718, 0, -0.523599, 285, 500, 1, -9.6, 0.5, 500, 2831366, 4.0, 4.0, -0.034907, 16.092213, 136, 47, diff, 0, 19.233807, 1, 2836402, -9.6, 3000, diff
175, 0, 0.5, 0, spatio, PP01.asc, 618, act, 0, -9.6, -9.6, 0, 6.0, 8.951434, 50, 688, 0, -0.523599, 333, 500, 1, -9.6, 0.5, 500, 2838329, 4.0, 4.0, 0.034907, 11.30763, 137, 122, diff, 0, 11.30763, 0, 2843404, -9.6, 3000, same
184, 0, 0.5, 1, retino, PP01.asc, 542, mir, 0, -9.6, -9.6, 3, 6.0, 12.39686, 50, 697, 0, -0.523599, 266, 500, 1, -9.6, 0.5, 500, 2845368, 4.0, 4.0, -0.034907, 16.323851, 138, 47, diff, 0, 19.465445, 1, 2850390, -9.6, 3000, diff
275, 0, 0.5, 1, spatio, PP01.asc, 474, act, 0, -9.6, -9.6, 1, 6.0, 9.869166, 50, 789, 0, 0.523599, 374, 500, 1, -9.6, 0.5, 500, 2852032, 4.0, 4.0, -0.034907, 13.796158, 139, 47, diff, 0, 13.796158, 0, 2857070, -9.6, 3000, diff
383, 0, 0.5, 0, spatio, PP01.asc, 749, act, 0, -9.6, -9.6, 0, 6.0, 8.283174, 50, 829, 0, -0.523599, 184, 500, 1, -9.6, 0.5, 500, 2859678, 4.0, 4.0, -0.034907, 10.639368, 140, 47, same, 0, 10.639368, 1, 2865027, -9.6, 3000, diff
200, 0, 0.5, 1, spatio, PP01.asc, 653, act, 0, -9.6, -9.6, 1, 6.0, 12.091014, 50, 714, 0, -0.523599, 228, 500, 0, -9.6, 0.5, 500, 2867067, 4.0, 4.0, -0.034907, 16.018005, 141, 122, diff, 0, 16.018005, 1, 2872203, -9.6, 3000, same
360, 0, 0.5, 1, retino, PP01.asc, 530, mir, 0, -9.6, -9.6, 3, 6.0, 7.301396, 50, 870, 0, -0.523599, 86, 500, 1, -9.6, 0.5, 500, 2873438, 4.0, 4.0, 0.034907, 11.228387, 142, 122, diff, 0, 14.36998, 0, 2878617, -9.6, 3000, diff
249, 0, 0.5, 0, retino, PP01.asc, 620, act, 0, -9.6, -9.6, 3, 6.0, 9.992656, 50, 651, 0, 0.523599, 197, 500, 1, -9.6, 0.5, 500, 2880279, 4.0, 4.0, -0.034907, 12.34885, 143, 47, same, 0, 17.061239, 0, 2885335, -9.6, 3000, same
515, 0, 0.5, 1, spatio, PP01.asc, 717, act, 0, -9.6, -9.6, 1, 6.0, 10.391887, 50, 628, 0, -0.523599, 89, 500, 1, -9.6, 0.5, 500, 2886331, 4.0, 4.0, -0.034907, 14.318877, 144, 47, same, 0, 14.318877, 1, 2891443, -9.6, 3000, diff
282, 0, 0.5, 1, spatio, PP01.asc, 661, mir, 0, -9.6, -9.6, 0, 6.0, 7.232557, 50, 796, 0, 0.523599, 229, 500, 1, -9.6, 0.5, 500, 2892477, 4.0, 4.0, 0.034907, 11.159548, 145, 122, diff, 0, 9.588751, 1, 2897704, -9.6, 3000, diff
280, 0, 0.5, 0, retino, PP01.asc, 629, act, 0, -9.6, -9.6, 3, 6.0, 6.754707, 50, 794, 0, 0.523599, 5, 500, 1, -9.6, 0.5, 500, 2899459, 4.0, 4.0, -0.034907, 9.110902, 146, 47, diff, 0, 13.823291, 0, 2904651, -9.6, 3000, diff
156, 0, 0.5, 0, retino, PP01.asc, 515, act, 0, -9.6, -9.6, 3, 6.0, 6.414345, 50, 670, 0, -0.523599, 254, 500, 1, -9.6, 0.5, 500, 2906787, 4.0, 4.0, -0.034907, 8.770539, 147, 47, diff, 0, 13.482928, 1, 2911751, -9.6, 3000, diff
355, 0, 0.5, 1, retino, PP01.asc, 562, act, 0, -9.6, -9.6, 2, 6.0, 11.106744, 50, 868, 1, -0.523599, 151, 500, 1, -9.6, 0.5, 500, 2912784, 4.0, 4.0, -0.034907, 15.033734, 148, 47, same, 0, 16.60453, 1, 2917991, -9.6, 3000, same
111, 0, 0.5, 1, spatio, PP01.asc, 835, act, 0, -9.6, -9.6, 1, 6.0, 9.769838, 50, 625, 0, 0.523599, 174, 500, 1, -9.6, 0.5, 500, 2919860, 4.0, 4.0, 0.034907, 13.696829, 149, 122, diff, 0, 13.696829, 1, 2925091, -9.6, 3000, diff
188, 0, 0.5, 1, retino, PP01.asc, 789, mir, 0, -9.6, -9.6, 3, 6.0, 9.464375, 50, 701, 0, 0.523599, 321, 500, 1, -9.6, 0.5, 500, 2926896, 4.0, 4.0, 0.034907, 13.391366, 150, 122, same, 0, 16.532959, 1, 2932153, -9.6, 3000, diff
12, 0, 0.5, 1, spatio, PP01.asc, 628, act, 0, -9.6, -9.6, 1, 6.0, 6.741859, 50, 527, 0, -0.523599, 27, 500, 1, -9.6, 0.5, 500, 2934253, 4.0, 4.0, -0.034907, 10.668851, 151, 47, diff, 0, 10.668851, 1, 2939177, -9.6, 3000, same
168, 0, 0.5, 1, spatio, PP01.asc, 624, act, 0, -9.6, -9.6, 1, 6.0, 6.750105, 50, 679, 0, -0.523599, 36, 500, 0, -9.6, 0.5, 500, 2941323, 4.0, 4.0, 0.034907, 10.677095, 152, 47, diff, 0, 10.677095, 0, 2946392, -9.6, 3000, same
294, 0, 0.5, 1, spatio, PP01.asc, 581, mir, 0, -9.6, -9.6, 0, 6.0, 11.278171, 50, 537, 0, 0.523599, 99, 500, 1, -9.6, 0.5, 500, 2947425, 4.0, 4.0, 0.034907, 15.205162, 153, 122, diff, 0, 13.634365, 1, 2952310, -9.6, 3000, diff
364, 0, 0.5, 0, retino, PP01.asc, 666, act, 0, -9.6, -9.6, 3, 6.0, 8.794197, 50, 874, 0, -0.523599, 90, 500, 1, -9.6, 0.5, 500, 2955282, 4.0, 4.0, -0.034907, 11.150392, 154, 47, same, 0, 15.862781, 1, 2960593, -9.6, 3000, same
-1, 0, 0.5, 1, spatio, PP01.asc, 5048, mir, 0, -9.6, -9.6, 0, 6.0, 7.097178, 50, 543, 1, 0.523599, 219, 500, 1, -9.6, 0.5, 500, 2961607, 4.0, 4.0, -0.034907, 11.02417, 155, 47, diff, 0, 9.453373, 0, 2970976, -9.6, 3000, diff
191, 0, 0.5, 1, spatio, PP01.asc, 783, act, 0, -9.6, -9.6, 1, 6.0, 11.289101, 50, 704, 0, 0.523599, 329, 500, 1, -9.6, 0.5, 500, 2972021, 4.0, 4.0, -0.034907, 15.216092, 156, 47, same, 0, 15.216092, 0, 2977275, -9.6, 3000, diff
256, 0, 0.5, 0, spatio, PP01.asc, 541, mir, 0, -9.6, -9.6, 1, 6.0, 9.411451, 50, 768, 0, 0.523599, 169, 500, 1, -9.6, 0.5, 500, 2979182, 4.0, 4.0, 0.034907, 11.767646, 157, 122, diff, 0, 13.338442, 1, 2984261, -9.6, 3000, diff
294, 0, 0.5, 1, spatio, PP01.asc, 564, act, 0, -9.6, -9.6, 1, 6.0, 7.97541, 50, 799, 0, 0.523599, 29, 500, 1, -9.6, 0.5, 500, 2985732, 4.0, 4.0, 0.034907, 11.9024, 158, 122, diff, 0, 11.9024, 1, 2990866, -9.6, 3000, diff
30, 0, 0.5, 0, spatio, PP01.asc, 509, act, 0, -9.6, -9.6, 0, 6.0, 10.692555, 50, 723, 0, -0.523599, 196, 500, 1, -9.6, 0.5, 500, 2992508, 4.0, 4.0, 0.034907, 13.048751, 159, 122, diff, 0, 13.048751, 0, 2997507, -9.6, 3000, diff
340, 0, 0.5, 1, spatio, PP01.asc, 587, act, 0, -9.6, -9.6, 1, 6.0, 9.303878, 50, 856, 0, 0.523599, 283, 500, 1, -9.6, 0.5, 500, 2999130, 4.0, 4.0, 0.034907, 13.230868, 160, 122, diff, 0, 13.230868, 1, 3004342, -9.6, 3000, diff
148, 0, 0.5, 0, retino, PP01.asc, 579, mir, 0, -9.6, -9.6, 2, 6.0, 6.812809, 50, 657, 0, -0.523599, 135, 500, 0, -9.6, 0.5, 500, 3006440, 4.0, 4.0, -0.034907, 9.169003, 161, 122, diff, 0, 12.310596, 1, 3011443, -9.6, 3000, diff
268, 0, 0.5, 1, retino, PP01.asc, 579, act, 0, -9.6, -9.6, 2, 6.0, 11.573854, 50, 783, 0, 0.523599, 106, 500, 1, -9.6, 0.5, 500, 3012477, 4.0, 4.0, -0.034907, 15.500846, 162, 47, same, 0, 17.071642, 0, 3017606, -9.6, 3000, same
298, 0, 0.5, 1, retino, PP01.asc, 1007, act, 0, -9.6, -9.6, 2, 6.0, 7.693149, 50, 803, 0, 0.523599, 120, 500, 0, -9.6, 0.5, 500, 3019399, 4.0, 4.0, 0.034907, 11.620139, 163, 47, diff, 0, 13.190936, 1, 3024974, -9.6, 3000, diff
435, 0, 0.5, 1, retino, PP01.asc, 728, mir, 0, -9.6, -9.6, 3, 6.0, 9.820461, 50, 946, 1, 0.523599, 289, 500, 1, -9.6, 0.5, 500, 3026900, 4.0, 4.0, -0.034907, 13.747452, 164, 47, same, 0, 16.889046, 0, 3032342, -9.6, 3000, diff
94, 0, 0.5, 0, retino, PP01.asc, 1471, act, 0, -9.6, -9.6, 3, 6.0, 11.684113, 50, 606, 0, 0.523599, 245, 500, 0, -9.6, 0.5, 500, 3034933, 4.0, 4.0, 0.034907, 14.040308, 165, 47, diff, 0, 18.752697, 1, 3040778, -9.6, 3000, same
1, 0, 0.5, 1, retino, PP01.asc, 822, mir, 0, -9.6, -9.6, 3, 6.0, 6.420864, 50, 755, 0, -0.523599, 61, 500, 0, -9.6, 0.5, 500, 3042780, 4.0, 4.0, 0.034907, 10.347856, 166, 47, diff, 0, 13.489448, 0, 3048125, -9.6, 3000, diff
215, 0, 0.5, 1, spatio, PP01.asc, 912, mir, 0, -9.6, -9.6, 0, 6.0, 8.058438, 50, 701, 1, -0.523599, 375, 500, 0, -9.6, 0.5, 500, 3049158, 4.0, 4.0, 0.034907, 11.98543, 167, 47, diff, 0, 10.414634, 0, 3054587, -9.6, 3000, diff
152, 0, 0.5, 1, spatio, PP01.asc, 548, mir, 0, -9.6, -9.6, 0, 6.0, 9.697547, 50, 664, 0, -0.523599, 296, 500, 1, -9.6, 0.5, 500, 3057882, 4.0, 4.0, 0.034907, 13.624538, 168, 122, diff, 0, 12.053741, 0, 3062860, -9.6, 3000, diff
202, 0, 0.5, 1, retino, PP01.asc, 628, mir, 0, -9.6, -9.6, 3, 6.0, 6.682608, 50, 715, 0, 0.523599, 88, 500, 1, -9.6, 0.5, 500, 3064122, 4.0, 4.0, -0.034907, 10.609599, 169, 47, diff, 0, 13.751191, 0, 3069235, -9.6, 3000, diff
172, 0, 0.5, 1, retino, PP01.asc, 582, mir, 0, -9.6, -9.6, 3, 6.0, 10.378655, 50, 686, 1, -0.523599, 70, 500, 1, -9.6, 0.5, 500, 3071144, 4.0, 4.0, 0.034907, 14.305646, 170, 122, diff, 0, 17.447239, 0, 3076182, -9.6, 3000, same
207, 0, 0.5, 1, spatio, PP01.asc, 626, act, 0, -9.6, -9.6, 1, 6.0, 7.100439, 50, 720, 0, 0.523599, 240, 500, 1, -9.6, 0.5, 500, 3077216, 4.0, 4.0, 0.034907, 11.02743, 171, 122, diff, 0, 11.02743, 1, 3082329, -9.6, 3000, diff
215, 0, 0.5, 0, retino, PP01.asc, 796, act, 0, -9.6, -9.6, 3, 6.0, 9.154694, 50, 724, 0, -0.523599, 242, 500, 1, -9.6, 0.5, 500, 3083799, 4.0, 4.0, 0.034907, 11.510888, 172, 122, same, 0, 16.223276, 0, 3089086, -9.6, 3000, same
253, 0, 0.5, 0, spatio, PP01.asc, 614, mir, 0, -9.6, -9.6, 1, 6.0, 10.606075, 50, 767, 0, -0.523599, 318, 500, 1, -9.6, 0.5, 500, 3090121, 4.0, 4.0, -0.034907, 12.96227, 173, 47, diff, 0, 14.533066, 1, 3095271, -9.6, 3000, diff
879, 0, 0.5, 1, spatio, PP01.asc, 775, mir, 0, -9.6, -9.6, 0, 6.0, 9.014522, 50, 1391, 0, -0.523599, 202, 500, 1, -9.6, 0.5, 500, 3097084, 4.0, 4.0, 0.034907, 12.941512, 174, 122, diff, 0, 11.370716, 0, 3103020, -9.6, 3000, diff
324, 0, 0.5, 1, spatio, PP01.asc, 534, act, 0, -9.6, -9.6, 1, 6.0, 6.708495, 50, 835, 0, -0.523599, 290, 500, 1, -9.6, 0.5, 500, 3105289, 4.0, 4.0, -0.034907, 10.635486, 175, 47, diff, 0, 10.635486, 1, 3110426, -9.6, 3000, same
157, 0, 0.5, 1, retino, PP01.asc, 543, act, 0, -9.6, -9.6, 2, 6.0, 11.989576, 50, 670, 0, -0.523599, 209, 500, 1, -9.6, 0.5, 500, 3111555, 4.0, 4.0, 0.034907, 15.916567, 176, 122, diff, 0, 17.487364, 0, 3116534, -9.6, 3000, same
207, 0, 0.5, 1, retino, PP01.asc, 664, mir, 0, -9.6, -9.6, 3, 6.0, 10.024487, 50, 721, 0, 0.523599, 195, 500, 1, -9.6, 0.5, 500, 3118100, 4.0, 4.0, 0.034907, 13.951478, 177, 122, same, 0, 17.093071, 1, 3123252, -9.6, 3000, diff
265, 0, 0.5, 0, spatio, PP01.asc, 671, mir, 0, -9.6, -9.6, 1, 6.0, 9.226984, 50, 777, 0, -0.523599, 110, 500, 1, -9.6, 0.5, 500, 3125254, 4.0, 4.0, -0.034907, 11.583179, 178, 47, diff, 0, 13.153975, 1, 3130471, -9.6, 3000, diff
256, 0, 0.5, 1, spatio, PP01.asc, 460, act, 0, -9.6, -9.6, 1, 6.0, 12.4308, 50, 770, 1, 0.523599, 239, 500, 1, -9.6, 0.5, 500, 3131658, 4.0, 4.0, 0.034907, 16.357792, 179, 122, diff, 0, 16.357792, 1, 3136655, -9.6, 3000, same
225, 0, 0.5, 1, retino, PP01.asc, 515, act, 0, -9.6, -9.6, 2, 6.0, 6.64464, 50, 738, 0, 0.523599, 143, 500, 1, -9.6, 0.5, 500, 3138163, 4.0, 4.0, 0.034907, 10.571631, 180, 122, diff, 0, 12.142427, 1, 3143183, -9.6, 3000, same
300, 0, 0.5, 0, retino, PP01.asc, 699, mir, 0, -9.6, -9.6, 2, 6.0, 8.424687, 50, 799, 0, -0.523599, 57, 500, 1, -9.6, 0.5, 500, 3144216, 4.0, 4.0, 0.034907, 10.780883, 181, 122, diff, 0, 13.922475, 0, 3149482, -9.6, 3000, diff
352, 0, 0.5, 1, retino, PP01.asc, 791, mir, 0, -9.6, -9.6, 3, 6.0, 11.64768, 50, 636, 0, 0.523599, 165, 500, 0, -9.6, 0.5, 500, 3151884, 4.0, 4.0, -0.034907, 15.574671, 182, 122, diff, 0, 18.716263, 0, 3157079, -9.6, 3000, same
184, 0, 0.5, 0, spatio, PP01.asc, 512, act, 0, -9.6, -9.6, 0, 6.0, 8.9662, 50, 695, 0, 0.523599, 380, 500, 1, -9.6, 0.5, 500, 3159737, 4.0, 4.0, -0.034907, 11.322394, 183, 47, diff, 0, 11.322394, 0, 3164714, -9.6, 3000, same
222, 0, 0.5, 0, spatio, PP01.asc, 775, act, 0, -9.6, -9.6, 0, 6.0, 11.531669, 50, 735, 0, 0.523599, 160, 500, 0, -9.6, 0.5, 500, 3165995, 4.0, 4.0, 0.034907, 13.887863, 184, 47, diff, 0, 13.887863, 1, 3171321, -9.6, 3000, diff
392, 0, 0.5, 1, retino, PP01.asc, 784, act, 0, -9.6, -9.6, 2, 6.0, 6.783854, 50, 874, 0, -0.523599, 376, 500, 1, -9.6, 0.5, 500, 3172840, 4.0, 4.0, -0.034907, 10.710844, 185, 47, diff, 0, 12.281641, 1, 3178266, -9.6, 3000, same
207, 0, 0.5, 1, retino, PP01.asc, 685, mir, 0, -9.6, -9.6, 3, 6.0, 9.429092, 50, 720, 0, 0.523599, 235, 500, 0, -9.6, 0.5, 500, 3180155, 4.0, 4.0, 0.034907, 13.356083, 186, 47, same, 0, 16.497677, 1, 3185328, -9.6, 3000, diff
32, 0, 0.5, 0, retino, PP01.asc, 626, act, 0, -9.6, -9.6, 3, 6.0, 9.984602, 50, 545, 0, 0.523599, 367, 500, 1, -9.6, 0.5, 500, 3187606, 4.0, 4.0, -0.034907, 12.340796, 187, 47, same, 0, 17.053186, 0, 3192544, -9.6, 3000, same
268, 0, 0.5, 1, retino, PP01.asc, 584, act, 0, -9.6, -9.6, 2, 6.0, 8.342425, 50, 762, 0, 0.523599, 186, 500, 0, -9.6, 0.5, 500, 3194396, 4.0, 4.0, 0.034907, 12.269417, 188, 47, diff, 0, 13.840213, 1, 3199509, -9.6, 3000, diff
178, 0, 0.5, 1, spatio, PP01.asc, 549, mir, 0, -9.6, -9.6, 0, 6.0, 10.757944, 50, 558, 0, 0.523599, 147, 500, 1, -9.6, 0.5, 500, 3202537, 4.0, 4.0, -0.034907, 14.684935, 189, 47, diff, 0, 13.114139, 0, 3207411, -9.6, 3000, diff
158, 0, 0.5, 0, retino, PP01.asc, 464, act, 0, -9.6, -9.6, 3, 6.0, 6.549339, 50, 671, 0, -0.523599, 72, 500, 1, -9.6, 0.5, 500, 3208730, 4.0, 4.0, 0.034907, 8.905534, 190, 122, diff, 0, 13.617923, 0, 3213634, -9.6, 3000, diff
314, 0, 0.5, 1, spatio, PP01.asc, 851, mir, 0, -9.6, -9.6, 0, 6.0, 7.483754, 50, 820, 0, -0.523599, 124, 500, 1, -9.6, 0.5, 500, 3215028, 4.0, 4.0, 0.034907, 11.410745, 191, 122, diff, 0, 9.839949, 0, 3220467, -9.6, 3000, diff
394, 0, 0.5, 1, retino, PP01.asc, 708, act, 0, -9.6, -9.6, 2, 6.0, 10.72803, 50, 907, 0, -0.523599, 141, 500, 1, -9.6, 0.5, 500, 3247612, 4.0, 4.0, 0.034907, 14.655022, 192, 122, same, 0, 16.225817, 0, 3252992, -9.6, 3000, same
215, 0, 0.5, 0, retino, PP01.asc, 456, act, 0, -9.6, -9.6, 3, 6.0, 8.478763, 50, 724, 0, -0.523599, 193, 500, 1, -9.6, 0.5, 500, 3254026, 4.0, 4.0, 0.034907, 10.834957, 193, 122, same, 0, 15.547346, 0, 3259025, -9.6, 3000, diff
185, 0, 0.5, 0, retino, PP01.asc, 569, act, 0, -9.6, -9.6, 3, 6.0, 10.613553, 50, 699, 0, 0.523599, 134, 500, 1, -9.6, 0.5, 500, 3260059, 4.0, 4.0, -0.034907, 12.969748, 194, 47, diff, 0, 17.682137, 0, 3265095, -9.6, 3000, same
216, 0, 0.5, 0, spatio, PP01.asc, 697, mir, 0, -9.6, -9.6, 1, 6.0, 6.616836, 50, 728, 0, 0.523599, 93, 500, 0, -9.6, 0.5, 500, 3266696, 4.0, 4.0, 0.034907, 8.973031, 195, 47, diff, 0, 10.543827, 1, 3271889, -9.6, 3000, diff
217, 0, 0.5, 1, spatio, PP01.asc, 545, mir, 0, -9.6, -9.6, 0, 6.0, 8.735904, 50, 728, 0, 0.523599, 104, 500, 1, -9.6, 0.5, 500, 3273569, 4.0, 4.0, 0.034907, 12.662894, 196, 122, diff, 0, 11.092098, 1, 3278608, -9.6, 3000, diff
139, 0, 0.5, 0, retino, PP01.asc, 618, mir, 0, -9.6, -9.6, 2, 6.0, 6.466885, 50, 653, 0, 0.523599, 281, 500, 1, -9.6, 0.5, 500, 3280403, 4.0, 4.0, 0.034907, 8.82308, 197, 122, diff, 0, 11.964672, 1, 3285442, -9.6, 3000, diff
179, 0, 0.5, 0, retino, PP01.asc, 907, act, 0, -9.6, -9.6, 3, 6.0, 11.977688, 50, 692, 0, -0.523599, 1, 500, 0, -9.6, 0.5, 500, 3287597, 4.0, 4.0, 0.034907, 14.333882, 198, 47, diff, 0, 19.04627, 0, 3292963, -9.6, 3000, diff
285, 0, 0.5, 1, spatio, PP01.asc, 572, mir, 0, -9.6, -9.6, 0, 6.0, 10.431196, 50, 799, 0, -0.523599, 51, 500, 1, -9.6, 0.5, 500, 3295460, 4.0, 4.0, 0.034907, 14.358187, 199, 122, diff, 0, 12.787391, 0, 3300598, -9.6, 3000, diff
263, 0, 0.5, 0, spatio, PP01.asc, 721, mir, 0, -9.6, -9.6, 1, 6.0, 9.08432, 50, 777, 1, 0.523599, 238, 500, 1, -9.6, 0.5, 500, 3301633, 4.0, 4.0, -0.034907, 11.440515, 200, 47, diff, 0, 13.011311, 0, 3306897, -9.6, 3000, diff
449, 0, 0.5, 1, retino, PP01.asc, 822, mir, 0, -9.6, -9.6, 3, 6.0, 7.671672, 50, 858, 0, 0.523599, 261, 500, 1, -9.6, 0.5, 500, 3309734, 4.0, 4.0, 0.034907, 11.598663, 201, 122, diff, 0, 14.740255, 1, 3315181, -9.6, 3000, diff
378, 0, 0.5, 0, retino, PP01.asc, 1260, mir, 0, -9.6, -9.6, 2, 6.0, 9.759867, 50, 893, 0, -0.523599, 369, 500, 0, -9.6, 0.5, 500, 3317431, 4.0, 4.0, -0.034907, 12.116061, 202, 122, same, 0, 15.257654, 1, 3323351, -9.6, 3000, diff
352, 0, 0.5, 1, spatio, PP01.asc, 637, mir, 0, -9.6, -9.6, 0, 6.0, 11.159475, 50, 555, 0, 0.523599, 356, 500, 1, -9.6, 0.5, 500, 3324385, 4.0, 4.0, -0.034907, 15.086467, 203, 47, diff, 0, 13.51567, 0, 3329345, -9.6, 3000, diff
210, 0, 0.5, 1, retino, PP01.asc, 609, act, 0, -9.6, -9.6, 2, 6.0, 6.287787, 50, 724, 0, -0.523599, 326, 500, 1, -9.6, 0.5, 500, 3331613, 4.0, 4.0, 0.034907, 10.214778, 204, 122, diff, 0, 11.785575, 0, 3336713, -9.6, 3000, same
198, 0, 0.5, 0, retino, PP01.asc, 753, act, 0, -9.6, -9.6, 3, 6.0, 7.731691, 50, 691, 0, -0.523599, 115, 500, 0, -9.6, 0.5, 500, 3338183, 4.0, 4.0, 0.034907, 10.087886, 205, 47, same, 0, 14.800275, 0, 3343394, -9.6, 3000, diff
349, 0, 0.5, 0, spatio, PP01.asc, 565, act, 0, -9.6, -9.6, 0, 6.0, 8.914618, 50, 730, 1, -0.523599, 96, 500, 1, -9.6, 0.5, 500, 3345816, 4.0, 4.0, 0.034907, 11.270812, 206, 122, diff, 0, 11.270812, 0, 3350877, -9.6, 3000, same
260, 0, 0.5, 1, spatio, PP01.asc, 633, mir, 0, -9.6, -9.6, 0, 6.0, 10.489873, 50, 522, 0, 0.523599, 28, 500, 1, -9.6, 0.5, 500, 3352481, 4.0, 4.0, -0.034907, 14.416863, 207, 47, diff, 0, 12.846067, 0, 3357404, -9.6, 3000, diff
184, 0, 0.5, 1, spatio, PP01.asc, 656, act, 0, -9.6, -9.6, 1, 6.0, 11.889864, 50, 697, 0, 0.523599, 234, 500, 1, -9.6, 0.5, 500, 3359729, 4.0, 4.0, 0.034907, 15.816855, 208, 122, diff, 0, 15.816855, 1, 3364849, -9.6, 3000, same
67, 0, 0.5, 0, spatio, PP01.asc, 742, act, 0, -9.6, -9.6, 0, 6.0, 8.817016, 50, 586, 0, -0.523599, 79, 500, 0, -9.6, 0.5, 500, 3366281, 4.0, 4.0, -0.034907, 11.17321, 209, 122, diff, 0, 11.17321, 1, 3371377, -9.6, 3000, same
161, 0, 0.5, 1, retino, PP01.asc, 560, mir, 0, -9.6, -9.6, 3, 6.0, 6.988071, 50, 666, 0, 0.523599, 226, 500, 1, -9.6, 0.5, 500, 3373037, 4.0, 4.0, 0.034907, 10.915062, 210, 122, diff, 0, 14.056655, 1, 3378099, -9.6, 3000, diff
249, 0, 0.5, 0, spatio, PP01.asc, 575, act, 0, -9.6, -9.6, 0, 6.0, 10.348934, 50, 763, 0, 0.523599, 279, 500, 1, -9.6, 0.5, 500, 3380007, 4.0, 4.0, 0.034907, 12.705129, 211, 122, diff, 0, 12.705129, 1, 3385161, -9.6, 3000, diff
215, 0, 0.5, 1, spatio, PP01.asc, 759, act, 0, -9.6, -9.6, 1, 6.0, 12.444607, 50, 728, 0, -0.523599, 60, 500, 1, -9.6, 0.5, 500, 3386737, 4.0, 4.0, 0.034907, 16.371597, 212, 122, diff, 0, 16.371597, 0, 3391995, -9.6, 3000, same
284, 0, 0.5, 0, spatio, PP01.asc, 759, act, 0, -9.6, -9.6, 0, 6.0, 6.574651, 50, 798, 0, -0.523599, 127, 500, 0, -9.6, 0.5, 500, 3393275, 4.0, 4.0, -0.034907, 8.930845, 213, 122, diff, 0, 8.930845, 1, 3398600, -9.6, 3000, diff
274, 0, 0.5, 1, retino, PP01.asc, 597, mir, 0, -9.6, -9.6, 3, 6.0, 9.593041, 50, 787, 0, -0.523599, 114, 500, 1, -9.6, 0.5, 500, 3399634, 4.0, 4.0, -0.034907, 13.520033, 214, 47, same, 0, 16.661625, 1, 3404784, -9.6, 3000, diff
173, 0, 0.5, 1, spatio, PP01.asc, 532, mir, 0, -9.6, -9.6, 0, 6.0, 12.217955, 50, 687, 0, -0.523599, 4, 500, 1, -9.6, 0.5, 500, 3407015, 4.0, 4.0, -0.034907, 16.144945, 215, 47, diff, 0, 14.574149, 1, 3412000, -9.6, 3000, diff
394, 0, 0.5, 0, retino, PP01.asc, 559, act, 0, -9.6, -9.6, 3, 6.0, 7.966781, 50, 904, 0, -0.523599, 273, 500, 1, -9.6, 0.5, 500, 3413755, 4.0, 4.0, -0.034907, 10.322975, 216, 47, same, 0, 15.035364, 1, 3418986, -9.6, 3000, diff
285, 0, 0.5, 0, retino, PP01.asc, 801, mir, 0, -9.6, -9.6, 2, 6.0, 9.660539, 50, 798, 0, 0.523599, 191, 500, 1, -9.6, 0.5, 500, 3420912, 4.0, 4.0, 0.034907, 12.016733, 217, 122, same, 0, 15.158326, 1, 3426278, -9.6, 3000, diff
199, 0, 0.5, 1, spatio, PP01.asc, 902, mir, 0, -9.6, -9.6, 0, 6.0, 9.564087, 50, 715, 0, -0.523599, 24, 500, 1, -9.6, 0.5, 500, 3427347, 4.0, 4.0, -0.034907, 13.491077, 218, 47, diff, 0, 11.920281, 1, 3432730, -9.6, 3000, diff
201, 0, 0.5, 1, retino, PP01.asc, 655, act, 0, -9.6, -9.6, 2, 6.0, 12.293122, 50, 713, 1, 0.523599, 268, 500, 1, -9.6, 0.5, 500, 3434162, 4.0, 4.0, -0.034907, 16.220114, 219, 47, diff, 0, 17.790909, 0, 3439297, -9.6, 3000, same
202, 0, 0.5, 0, retino, PP01.asc, 650, mir, 0, -9.6, -9.6, 2, 6.0, 8.730726, 50, 687, 1, 0.523599, 140, 500, 1, -9.6, 0.5, 500, 3441600, 4.0, 4.0, 0.034907, 11.086921, 220, 122, same, 0, 14.228514, 1, 3446703, -9.6, 3000, diff
189, 0, 0.5, 1, retino, PP01.asc, 675, mir, 0, -9.6, -9.6, 3, 6.0, 6.614919, 50, 639, 0, -0.523599, 170, 500, 1, -9.6, 0.5, 500, 3448608, 4.0, 4.0, 0.034907, 10.541909, 221, 122, diff, 0, 13.683502, 0, 3453690, -9.6, 3000, diff
190, 0, 0.5, 1, spatio, PP01.asc, 666, act, 0, -9.6, -9.6, 1, 6.0, 12.453044, 50, 702, 0, 0.523599, 117, 500, 1, -9.6, 0.5, 500, 3455084, 4.0, 4.0, 0.034907, 16.380035, 222, 122, diff, 0, 16.380035, 1, 3460220, -9.6, 3000, same
182, 0, 0.5, 0, retino, PP01.asc, 770, act, 0, -9.6, -9.6, 3, 6.0, 9.545486, 50, 693, 0, 0.523599, 206, 500, 0, -9.6, 0.5, 500, 3461253, 4.0, 4.0, 0.034907, 11.901681, 223, 47, same, 0, 16.614071, 1, 3466481, -9.6, 3000, same
178, 0, 0.5, 1, spatio, PP01.asc, 468, act, 0, -9.6, -9.6, 1, 6.0, 6.611276, 50, 692, 0, 0.523599, 275, 500, 1, -9.6, 0.5, 500, 3468579, 4.0, 4.0, -0.034907, 10.538266, 224, 47, diff, 0, 10.538266, 0, 3473506, -9.6, 3000, same
241, 0, 0.5, 0, retino, PP01.asc, 562, mir, 0, -9.6, -9.6, 2, 6.0, 11.496578, 50, 747, 0, -0.523599, 230, 500, 1, -9.6, 0.5, 500, 3475109, 4.0, 4.0, -0.034907, 13.852773, 225, 47, diff, 0, 16.994366, 1, 3480187, -9.6, 3000, same
510, 0, 0.5, 0, retino, PP01.asc, 693, act, 0, -9.6, -9.6, 3, 6.0, 8.468599, 50, 803, 0, 0.523599, 299, 500, 1, -9.6, 0.5, 500, 3482409, 4.0, 4.0, -0.034907, 10.824794, 226, 47, same, 0, 15.537183, 0, 3487670, -9.6, 3000, diff
198, 0, 0.5, 0, retino, PP01.asc, 777, mir, 0, -9.6, -9.6, 2, 6.0, 11.606645, 50, 706, 1, -0.523599, 12, 500, 0, -9.6, 0.5, 500, 3489406, 4.0, 4.0, 0.034907, 13.962839, 227, 47, diff, 0, 17.104431, 0, 3494656, -9.6, 3000, same
204, 0, 0.5, 1, spatio, PP01.asc, 782, act, 0, -9.6, -9.6, 1, 6.0, 9.938006, 50, 712, 0, 0.523599, 223, 500, 1, -9.6, 0.5, 500, 3498596, 4.0, 4.0, -0.034907, 13.864997, 228, 47, diff, 0, 13.864997, 0, 3503857, -9.6, 3000, diff
264, 0, 0.5, 1, retino, PP01.asc, 585, act, 0, -9.6, -9.6, 2, 6.0, 8.928041, 50, 755, 0, 0.523599, 342, 500, 0, -9.6, 0.5, 500, 3505623, 4.0, 4.0, 0.034907, 12.855032, 229, 47, same, 0, 14.425828, 1, 3510729, -9.6, 3000, diff
264, 0, 0.5, 0, retino, PP01.asc, 629, act, 0, -9.6, -9.6, 3, 6.0, 7.485096, 50, 649, 0, -0.523599, 107, 500, 1, -9.6, 0.5, 500, 3514080, 4.0, 4.0, -0.034907, 9.84129, 230, 47, same, 0, 14.553679, 1, 3519128, -9.6, 3000, diff
269, 0, 0.5, 0, spatio, PP01.asc, 912, mir, 0, -9.6, -9.6, 1, 6.0, 9.471662, 50, 782, 0, 0.523599, 216, 500, 1, -9.6, 0.5, 500, 3520503, 4.0, 4.0, 0.034907, 11.827856, 231, 122, diff, 0, 13.398653, 1, 3525962, -9.6, 3000, diff
294, 0, 0.5, 0, spatio, PP01.asc, 580, mir, 0, -9.6, -9.6, 1, 6.0, 10.696391, 50, 804, 0, -0.523599, 34, 500, 1, -9.6, 0.5, 500, 3526996, 4.0, 4.0, -0.034907, 13.052586, 232, 47, diff, 0, 14.623382, 1, 3532147, -9.6, 3000, diff
193, 0, 0.5, 1, retino, PP01.asc, 535, mir, 0, -9.6, -9.6, 3, 6.0, 6.991139, 50, 698, 0, 0.523599, 218, 500, 1, -9.6, 0.5, 500, 3533600, 4.0, 4.0, -0.034907, 10.91813, 233, 47, diff, 0, 14.059723, 0, 3538598, -9.6, 3000, diff
171, 0, 0.5, 0, retino, PP01.asc, 667, act, 0, -9.6, -9.6, 3, 6.0, 10.2381, 50, 685, 0, 0.523599, 113, 500, 1, -9.6, 0.5, 500, 3540428, 4.0, 4.0, 0.034907, 12.594295, 234, 122, diff, 0, 17.306684, 1, 3545546, -9.6, 3000, same
3, 0, 0.5, 0, retino, PP01.asc, 950, act, 0, -9.6, -9.6, 3, 6.0, 7.944729, 50, 515, 0, -0.523599, 277, 500, 0, -9.6, 0.5, 500, 3547302, 4.0, 4.0, -0.034907, 10.300923, 235, 122, same, 0, 15.013312, 1, 3552533, -9.6, 3000, diff
217, 0, 0.5, 0, retino, PP01.asc, 615, act, 0, -9.6, -9.6, 3, 6.0, 12.329747, 50, 732, 0, -0.523599, 205, 500, 1, -9.6, 0.5, 500, 3554176, 4.0, 4.0, -0.034907, 14.685942, 236, 47, diff, 0, 19.398331, 1, 3559293, -9.6, 3000, diff
196, 0, 0.5, 0, retino, PP01.asc, 507, act, 0, -9.6, -9.6, 3, 6.0, 11.601467, 50, 710, 0, -0.523599, 78, 500, 0, -9.6, 0.5, 500, 3561104, 4.0, 4.0, 0.034907, 13.957662, 237, 47, diff, 0, 18.670052, 0, 3566089, -9.6, 3000, same
-1, 0, 0.5, 0, retino, PP01.asc, 824, mir, 0, -9.6, -9.6, 2, 6.0, 7.331885, 50, 894, 1, 0.523599, 103, 500, 0, -9.6, 0.5, 500, 3568851, 4.0, 4.0, 0.034907, 9.68808, 238, 47, diff, 0, 12.829672, 1, 3574335, -9.6, 3000, diff
249, 0, 0.5, 0, spatio, PP01.asc, 738, act, 0, -9.6, -9.6, 0, 6.0, 11.308084, 50, 672, 1, -0.523599, 21, 500, 1, -9.6, 0.5, 500, 3576299, 4.0, 4.0, 0.034907, 13.664279, 239, 122, diff, 0, 13.664279, 0, 3581474, -9.6, 3000, diff
167, 0, 0.5, 1, retino, PP01.asc, 795, mir, 0, -9.6, -9.6, 3, 6.0, 8.86898, 50, 516, 0, 0.523599, 83, 500, 1, -9.6, 0.5, 500, 3583001, 4.0, 4.0, -0.034907, 12.795972, 240, 47, same, 0, 15.937564, 0, 3588079, -9.6, 3000, diff
188, 0, 0.5, 0, spatio, PP01.asc, 579, act, 0, -9.6, -9.6, 0, 6.0, 12.380178, 50, 682, 0, 0.523599, 232, 500, 1, -9.6, 0.5, 500, 3590195, 4.0, 4.0, 0.034907, 14.736373, 241, 122, diff, 0, 14.736373, 1, 3595221, -9.6, 3000, diff
216, 0, 0.5, 1, spatio, PP01.asc, 618, act, 0, -9.6, -9.6, 1, 6.0, 9.847691, 50, 730, 1, -0.523599, 203, 500, 1, -9.6, 0.5, 500, 3596255, 4.0, 4.0, -0.034907, 13.774681, 242, 47, diff, 0, 13.774681, 1, 3601368, -9.6, 3000, diff
103, 0, 0.5, 0, retino, PP01.asc, 986, act, 0, -9.6, -9.6, 3, 6.0, 8.693143, 50, 537, 0, -0.523599, 182, 500, 1, -9.6, 0.5, 500, 3603637, 4.0, 4.0, -0.034907, 11.049337, 243, 47, same, 0, 15.761726, 1, 3608926, -9.6, 3000, same
271, 0, 0.5, 0, retino, PP01.asc, 734, act, 0, -9.6, -9.6, 3, 6.0, 10.089875, 50, 786, 1, 0.523599, 180, 500, 0, -9.6, 0.5, 500, 3610474, 4.0, 4.0, 0.034907, 12.44607, 244, 47, same, 0, 17.158459, 1, 3615760, -9.6, 3000, same
370, 0, 0.5, 1, retino, PP01.asc, 935, mir, 0, -9.6, -9.6, 3, 6.0, 6.946844, 50, 549, 1, 0.523599, 105, 500, 0, -9.6, 0.5, 500, 3617649, 4.0, 4.0, 0.034907, 10.873835, 245, 47, diff, 0, 14.015428, 1, 3622900, -9.6, 3000, diff
270, 0, 0.5, 1, spatio, PP01.asc, 649, act, 0, -9.6, -9.6, 1, 6.0, 10.478559, 50, 778, 0, -0.523599, 63, 500, 1, -9.6, 0.5, 500, 3624960, 4.0, 4.0, 0.034907, 14.40555, 246, 122, same, 0, 14.40555, 0, 3630154, -9.6, 3000, diff
61, 0, 0.5, 0, retino, PP01.asc, 554, mir, 0, -9.6, -9.6, 2, 6.0, 7.284714, 50, 737, 1, -0.523599, 137, 500, 1, -9.6, 0.5, 500, 3631549, 4.0, 4.0, 0.034907, 9.640908, 247, 122, diff, 0, 12.782501, 0, 3636606, -9.6, 3000, diff
186, 0, 0.5, 0, spatio, PP01.asc, 539, mir, 0, -9.6, -9.6, 1, 6.0, 9.889684, 50, 697, 1, 0.523599, 152, 500, 1, -9.6, 0.5, 500, 3638020, 4.0, 4.0, -0.034907, 12.245879, 248, 47, diff, 0, 13.816675, 0, 3643021, -9.6, 3000, diff
188, 0, 0.5, 1, spatio, PP01.asc, 567, mir, 0, -9.6, -9.6, 0, 6.0, 12.506543, 50, 701, 0, -0.523599, 133, 500, 1, -9.6, 0.5, 500, 3644055, 4.0, 4.0, -0.034907, 16.433535, 249, 47, diff, 0, 14.862738, 1, 3649091, -9.6, 3000, diff
249, 0, 0.5, 1, retino, PP01.asc, 746, act, 0, -9.6, -9.6, 2, 6.0, 6.360078, 50, 763, 0, 0.523599, 112, 500, 1, -9.6, 0.5, 500, 3650376, 4.0, 4.0, -0.034907, 10.287069, 250, 47, diff, 0, 11.857865, 0, 3655657, -9.6, 3000, same
275, 0, 0.5, 1, spatio, PP01.asc, 814, mir, 0, -9.6, -9.6, 0, 6.0, 6.732464, 50, 786, 0, -0.523599, 100, 500, 0, -9.6, 0.5, 500, 3657355, 4.0, 4.0, -0.034907, 10.659454, 251, 122, diff, 0, 9.088658, 1, 3662721, -9.6, 3000, diff
-1, 0, 0.5, 1, spatio, PP01.asc, 1477, act, 0, -9.6, -9.6, 1, 6.0, 9.355843, 50, 516, 1, -0.523599, 381, 500, 1, -9.6, 0.5, 500, 3663755, 4.0, 4.0, -0.034907, 13.282833, 252, 47, diff, 0, 13.282833, 1, 3669517, -9.6, 3000, diff
240, 0, 0.5, 0, spatio, PP01.asc, 616, mir, 0, -9.6, -9.6, 1, 6.0, 11.439052, 50, 753, 0, 0.523599, 188, 500, 0, -9.6, 0.5, 500, 3671406, 4.0, 4.0, 0.034907, 13.795247, 253, 47, diff, 0, 15.366043, 1, 3676542, -9.6, 3000, diff
205, 0, 0.5, 1, retino, PP01.asc, 1183, mir, 0, -9.6, -9.6, 3, 6.0, 7.219709, 50, 717, 0, 0.523599, 81, 500, 1, -9.6, 0.5, 500, 3677709, 4.0, 4.0, 0.034907, 11.1467, 254, 122, diff, 0, 14.288293, 1, 3683376, -9.6, 3000, diff
-1, 0, 0.5, 1, retino, PP01.asc, 897, mir, 0, -9.6, -9.6, 3, 6.0, 10.052483, 50, 528, 1, -0.523599, 7, 500, 1, -9.6, 0.5, 500, 3684409, 4.0, 4.0, 0.034907, 13.979474, 255, 122, same, 0, 17.121067, 0, 3689648, -9.6, 3000, diff
372, 0, 0.5, 0, spatio, PP01.asc, 810, mir, 0, -9.6, -9.6, 1, 6.0, 7.67148, 50, 879, 0, 0.523599, 267, 500, 1, -9.6, 0.5, 500, 3715162, 4.0, 4.0, -0.034907, 10.027675, 256, 47, diff, 0, 11.598472, 0, 3720620, -9.6, 3000, diff
201, 0, 0.5, 0, retino, PP01.asc, 729, mir, 0, -9.6, -9.6, 2, 6.0, 11.537038, 50, 715, 0, -0.523599, 194, 500, 1, -9.6, 0.5, 500, 3722205, 4.0, 4.0, 0.034907, 13.893232, 257, 122, diff, 0, 17.034826, 0, 3727416, -9.6, 3000, same
5, 0, 0.5, 0, retino, PP01.asc, 637, mir, 0, -9.6, -9.6, 2, 6.0, 8.846162, 50, 518, 0, 0.523599, 119, 500, 1, -9.6, 0.5, 500, 3728451, 4.0, 4.0, -0.034907, 11.202356, 258, 47, same, 0, 14.343949, 0, 3733371, -9.6, 3000, diff
160, 0, 0.5, 0, spatio, PP01.asc, 578, act, 0, -9.6, -9.6, 0, 6.0, 10.060728, 50, 673, 0, 0.523599, 363, 500, 1, -9.6, 0.5, 500, 3734728, 4.0, 4.0, 0.034907, 12.416923, 259, 122, diff, 0, 12.416923, 1, 3739747, -9.6, 3000, same
184, 0, 0.5, 1, spatio, PP01.asc, 686, mir, 0, -9.6, -9.6, 0, 6.0, 9.647307, 50, 699, 1, -0.523599, 349, 500, 1, -9.6, 0.5, 500, 3741199, 4.0, 4.0, -0.034907, 13.574299, 260, 47, diff, 0, 12.003503, 1, 3746352, -9.6, 3000, diff
285, 0, 0.5, 1, spatio, PP01.asc, 709, act, 0, -9.6, -9.6, 1, 6.0, 7.219901, 50, 792, 0, -0.523599, 94, 500, 1, -9.6, 0.5, 500, 3747386, 4.0, 4.0, -0.034907, 11.146892, 261, 47, diff, 0, 11.146892, 1, 3752652, -9.6, 3000, diff
271, 0, 0.5, 0, spatio, PP01.asc, 1272, act, 0, -9.6, -9.6, 0, 6.0, 10.14395, 50, 783, 1, -0.523599, 327, 500, 0, -9.6, 0.5, 500, 3754274, 4.0, 4.0, -0.034907, 12.500144, 262, 122, diff, 0, 12.500144, 1, 3760097, -9.6, 3000, same
223, 0, 0.5, 1, spatio, PP01.asc, 950, act, 0, -9.6, -9.6, 1, 6.0, 12.402997, 50, 737, 1, -0.523599, 303, 500, 1, -9.6, 0.5, 500, 3761130, 4.0, 4.0, 0.034907, 16.329988, 263, 122, diff, 0, 16.329988, 0, 3766587, -9.6, 3000, same
284, 0, 0.5, 0, retino, PP01.asc, 878, act, 0, -9.6, -9.6, 3, 6.0, 8.243672, 50, 792, 0, 0.523599, 225, 500, 1, -9.6, 0.5, 500, 3767793, 4.0, 4.0, 0.034907, 10.599867, 264, 122, same, 0, 15.312256, 1, 3773230, -9.6, 3000, diff
808, 0, 0.5, 0, spatio, PP01.asc, 3067, mir, 0, -9.6, -9.6, 1, 6.0, 6.672828, 50, 1258, 0, -0.523599, 370, 500, 1, -9.6, 0.5, 500, 3775099, 4.0, 4.0, -0.034907, 9.029023, 265, 47, diff, 0, 10.599819, 1, 3783195, -9.6, 3000, diff
521, 0, 0.5, 1, spatio, PP01.asc, 1116, mir, 0, -9.6, -9.6, 0, 6.0, 6.403606, 50, 1034, 0, -0.523599, 354, 500, 1, -9.6, 0.5, 500, 3784228, 4.0, 4.0, -0.034907, 10.330597, 266, 47, diff, 0, 8.759801, 1, 3790144, -9.6, 3000, diff
223, 0, 0.5, 1, retino, PP01.asc, 652, mir, 0, -9.6, -9.6, 3, 6.0, 9.599753, 50, 736, 0, 0.523599, 69, 500, 1, -9.6, 0.5, 500, 3792128, 4.0, 4.0, -0.034907, 13.526744, 267, 47, same, 0, 16.668337, 0, 3797284, -9.6, 3000, diff
174, 0, 0.5, 1, retino, PP01.asc, 720, act, 0, -9.6, -9.6, 2, 6.0, 11.418726, 50, 688, 0, 0.523599, 126, 500, 1, -9.6, 0.5, 500, 3799820, 4.0, 4.0, -0.034907, 15.345717, 268, 47, same, 0, 16.916513, 0, 3804995, -9.6, 3000, same
349, 0, 0.5, 1, retino, PP01.asc, 545, mir, 0, -9.6, -9.6, 3, 6.0, 6.618178, 50, 862, 0, -0.523599, 276, 500, 1, -9.6, 0.5, 500, 3806884, 4.0, 4.0, 0.034907, 10.54517, 269, 122, diff, 0, 13.686762, 0, 3812058, -9.6, 3000, diff
265, 0, 0.5, 0, spatio, PP01.asc, 602, act, 0, -9.6, -9.6, 0, 6.0, 10.134937, 50, 779, 0, 0.523599, 224, 500, 0, -9.6, 0.5, 500, 3813092, 4.0, 4.0, -0.034907, 12.491132, 270, 122, diff, 0, 12.491132, 0, 3818243, -9.6, 3000, same
326, 0, 0.5, 1, spatio, PP01.asc, 588, act, 0, -9.6, -9.6, 1, 6.0, 8.011459, 50, 836, 0, -0.523599, 92, 500, 1, -9.6, 0.5, 500, 3819277, 4.0, 4.0, 0.034907, 11.93845, 271, 122, diff, 0, 11.93845, 0, 3824467, -9.6, 3000, diff
385, 0, 0.5, 1, retino, PP01.asc, 627, mir, 0, -9.6, -9.6, 3, 6.0, 9.293331, 50, 897, 0, 0.523599, 246, 500, 1, -9.6, 0.5, 500, 3826279, 4.0, 4.0, -0.034907, 13.220322, 272, 47, same, 0, 16.361914, 0, 3831568, -9.6, 3000, diff
187, 0, 0.5, 0, spatio, PP01.asc, 716, act, 0, -9.6, -9.6, 0, 6.0, 6.316934, 50, 696, 0, -0.523599, 265, 500, 1, -9.6, 0.5, 500, 3833684, 4.0, 4.0, 0.034907, 8.673128, 273, 122, diff, 0, 8.673128, 0, 3838861, -9.6, 3000, diff
508, 0, 0.5, 0, spatio, PP01.asc, 675, mir, 0, -9.6, -9.6, 1, 6.0, 9.253255, 50, 1021, 0, 0.523599, 220, 500, 1, -9.6, 0.5, 500, 3840768, 4.0, 4.0, 0.034907, 11.609449, 274, 122, diff, 0, 13.180245, 1, 3846230, -9.6, 3000, diff
214, 0, 0.5, 0, spatio, PP01.asc, 529, act, 0, -9.6, -9.6, 0, 6.0, 11.658801, 50, 728, 0, 0.523599, 278, 500, 1, -9.6, 0.5, 500, 3848232, 4.0, 4.0, 0.034907, 14.014997, 275, 122, diff, 0, 14.014997, 1, 3853255, -9.6, 3000, diff
-1, 0, 0.5, 0, spatio, PP01.asc, 1086, mir, 0, -9.6, -9.6, 1, 6.0, 7.097946, 50, 591, 0, 0.523599, 173, 500, 0, -9.6, 0.5, 500, 3854878, 4.0, 4.0, 0.034907, 9.454141, 276, 47, diff, 0, 11.024937, 1, 3860394, -9.6, 3000, diff
195, 0, 0.5, 1, retino, PP01.asc, 601, act, 0, -9.6, -9.6, 2, 6.0, 11.231958, 50, 651, 0, -0.523599, 286, 500, 1, -9.6, 0.5, 500, 3862170, 4.0, 4.0, 0.034907, 15.158949, 277, 122, same, 0, 16.729746, 0, 3867190, -9.6, 3000, same
207, 0, 0.5, 0, retino, PP01.asc, 704, mir, 0, -9.6, -9.6, 2, 6.0, 9.726694, 50, 724, 1, -0.523599, 310, 500, 1, -9.6, 0.5, 500, 3869059, 4.0, 4.0, 0.034907, 12.082889, 278, 122, same, 0, 15.224481, 0, 3874253, -9.6, 3000, diff
210, 0, 0.5, 1, spatio, PP01.asc, 630, act, 0, -9.6, -9.6, 1, 6.0, 6.916547, 50, 724, 0, 0.523599, 295, 500, 1, -9.6, 0.5, 500, 3876350, 4.0, 4.0, -0.034907, 10.843538, 279, 47, diff, 0, 10.843538, 0, 3881471, -9.6, 3000, same
227, 0, 0.5, 1, retino, PP01.asc, 759, act, 0, -9.6, -9.6, 2, 6.0, 9.894094, 50, 741, 0, -0.523599, 95, 500, 0, -9.6, 0.5, 500, 3882504, 4.0, 4.0, -0.034907, 13.821085, 280, 122, same, 0, 15.391882, 1, 3887771, -9.6, 3000, diff
323, 0, 0.5, 1, retino, PP01.asc, 722, act, 0, -9.6, -9.6, 2, 6.0, 6.98251, 50, 836, 0, -0.523599, 32, 500, 1, -9.6, 0.5, 500, 3889394, 4.0, 4.0, 0.034907, 10.909501, 281, 122, diff, 0, 12.480297, 0, 3894720, -9.6, 3000, same
225, 0, 0.5, 0, retino, PP01.asc, 635, mir, 0, -9.6, -9.6, 2, 6.0, 11.591305, 50, 736, 0, -0.523599, 58, 500, 1, -9.6, 0.5, 500, 3896342, 4.0, 4.0, 0.034907, 13.947499, 282, 122, diff, 0, 17.089092, 0, 3901478, -9.6, 3000, same
277, 0, 0.5, 0, spatio, PP01.asc, 617, act, 0, -9.6, -9.6, 0, 6.0, 7.978286, 50, 771, 0, 0.523599, 292, 500, 1, -9.6, 0.5, 500, 3903271, 4.0, 4.0, -0.034907, 10.33448, 283, 47, same, 0, 10.33448, 0, 3908427, -9.6, 3000, diff
201, 0, 0.5, 0, spatio, PP01.asc, 522, act, 0, -9.6, -9.6, 0, 6.0, 9.784603, 50, 715, 0, -0.523599, 322, 500, 1, -9.6, 0.5, 500, 3910448, 4.0, 4.0, 0.034907, 12.140798, 284, 122, diff, 0, 12.140798, 0, 3915452, -9.6, 3000, same
279, 0, 0.5, 0, retino, PP01.asc, 500, mir, 0, -9.6, -9.6, 2, 6.0, 8.84808, 50, 789, 0, 0.523599, 357, 500, 1, -9.6, 0.5, 500, 3916467, 4.0, 4.0, -0.034907, 11.204274, 285, 47, same, 0, 14.345867, 0, 3921522, -9.6, 3000, diff
202, 0, 0.5, 0, spatio, PP01.asc, 772, mir, 0, -9.6, -9.6, 1, 6.0, 10.179807, 50, 716, 0, -0.523599, 45, 500, 1, -9.6, 0.5, 500, 3924285, 4.0, 4.0, 0.034907, 12.536002, 286, 122, diff, 0, 14.106798, 0, 3929540, -9.6, 3000, diff
293, 0, 0.5, 1, spatio, PP01.asc, 778, act, 0, -9.6, -9.6, 1, 6.0, 12.561769, 50, 801, 0, -0.523599, 372, 500, 1, -9.6, 0.5, 500, 3932967, 4.0, 4.0, -0.034907, 16.48876, 287, 47, diff, 0, 16.48876, 1, 3938360, -9.6, 3000, same
277, 0, 0.5, 0, spatio, PP01.asc, 658, act, 0, -9.6, -9.6, 0, 6.0, 7.020669, 50, 786, 0, -0.523599, 274, 500, 1, -9.6, 0.5, 500, 3939945, 4.0, 4.0, 0.034907, 9.376863, 288, 122, diff, 0, 9.376863, 0, 3945155, -9.6, 3000, diff
29, 0, 0.5, 0, retino, PP01.asc, 727, mir, 0, -9.6, -9.6, 2, 6.0, 10.569834, 50, 545, 0, 0.523599, 332, 500, 1, -9.6, 0.5, 500, 3946607, 4.0, 4.0, -0.034907, 12.926028, 289, 47, diff, 0, 16.067621, 0, 3951646, -9.6, 3000, same
174, 0, 0.5, 0, spatio, PP01.asc, 659, mir, 0, -9.6, -9.6, 1, 6.0, 6.351258, 50, 687, 0, -0.523599, 287, 500, 1, -9.6, 0.5, 500, 3953327, 4.0, 4.0, -0.034907, 8.707453, 290, 47, diff, 0, 10.278249, 1, 3958442, -9.6, 3000, diff
368, 0, 0.5, 0, spatio, PP01.asc, 745, mir, 0, -9.6, -9.6, 1, 6.0, 8.388447, 50, 872, 0, -0.523599, 262, 500, 0, -9.6, 0.5, 500, 3960273, 4.0, 4.0, 0.034907, 10.744641, 291, 47, diff, 0, 12.315437, 0, 3965659, -9.6, 3000, diff
556, 0, 0.5, 1, retino, PP01.asc, 893, act, 0, -9.6, -9.6, 2, 6.0, 11.807219, 50, 608, 0, -0.523599, 164, 500, 1, -9.6, 0.5, 500, 3966958, 4.0, 4.0, -0.034907, 15.73421, 292, 47, diff, 0, 17.305006, 1, 3972226, -9.6, 3000, same
219, 0, 0.5, 0, spatio, PP01.asc, 612, mir, 0, -9.6, -9.6, 1, 6.0, 9.365814, 50, 733, 1, 0.523599, 71, 500, 1, -9.6, 0.5, 500, 3974523, 4.0, 4.0, -0.034907, 11.722009, 293, 47, diff, 0, 13.292805, 0, 3979633, -9.6, 3000, diff
275, 0, 0.5, 0, spatio, PP01.asc, 636, act, 0, -9.6, -9.6, 0, 6.0, 6.913671, 50, 785, 0, 0.523599, 201, 500, 1, -9.6, 0.5, 500, 3981124, 4.0, 4.0, -0.034907, 9.269865, 294, 47, diff, 0, 9.269865, 0, 3986315, -9.6, 3000, diff
167, 0, 0.5, 1, spatio, PP01.asc, 516, act, 0, -9.6, -9.6, 1, 6.0, 9.764277, 50, 681, 0, 0.523599, 183, 500, 1, -9.6, 0.5, 500, 3988072, 4.0, 4.0, -0.034907, 13.691268, 295, 47, diff, 0, 13.691268, 0, 3993034, -9.6, 3000, diff
207, 0, 0.5, 1, retino, PP01.asc, 575, act, 0, -9.6, -9.6, 2, 6.0, 8.728042, 50, 717, 0, 0.523599, 16, 500, 1, -9.6, 0.5, 500, 3994468, 4.0, 4.0, -0.034907, 12.655033, 296, 47, same, 0, 14.225829, 0, 3999525, -9.6, 3000, diff
186, 0, 0.5, 0, spatio, PP01.asc, 843, mir, 0, -9.6, -9.6, 1, 6.0, 11.59514, 50, 700, 0, 0.523599, 271, 500, 1, -9.6, 0.5, 500, 4001470, 4.0, 4.0, -0.034907, 13.951334, 297, 47, diff, 0, 15.52213, 0, 4006779, -9.6, 3000, diff
274, 0, 0.5, 0, retino, PP01.asc, 674, mir, 0, -9.6, -9.6, 2, 6.0, 8.994004, 50, 787, 0, -0.523599, 102, 500, 1, -9.6, 0.5, 500, 4007813, 4.0, 4.0, -0.034907, 11.350199, 298, 47, same, 0, 14.491791, 1, 4013041, -9.6, 3000, diff
221, 0, 0.5, 0, spatio, PP01.asc, 586, mir, 0, -9.6, -9.6, 1, 6.0, 10.758519, 50, 723, 0, 0.523599, 167, 500, 1, -9.6, 0.5, 500, 4014722, 4.0, 4.0, -0.034907, 13.114714, 299, 47, diff, 0, 14.68551, 0, 4019799, -9.6, 3000, diff
222, 0, 0.5, 1, retino, PP01.asc, 561, mir, 0, -9.6, -9.6, 3, 6.0, 8.079723, 50, 730, 0, 0.523599, 241, 500, 1, -9.6, 0.5, 500, 4023550, 4.0, 4.0, -0.034907, 12.006714, 300, 47, diff, 0, 15.148307, 0, 4028657, -9.6, 3000, diff
143, 0, 0.5, 0, spatio, PP01.asc, 546, act, 0, -9.6, -9.6, 0, 6.0, 11.057463, 50, 658, 1, -0.523599, 156, 500, 1, -9.6, 0.5, 500, 4030165, 4.0, 4.0, -0.034907, 13.413657, 301, 47, diff, 0, 13.413657, 1, 4035186, -9.6, 3000, diff
208, 0, 0.5, 0, retino, PP01.asc, 830, mir, 0, -9.6, -9.6, 2, 6.0, 7.837347, 50, 710, 0, 0.523599, 101, 500, 1, -9.6, 0.5, 500, 4036219, 4.0, 4.0, -0.034907, 10.193542, 302, 47, diff, 0, 13.335135, 0, 4041524, -9.6, 3000, diff
155, 0, 0.5, 1, retino, PP01.asc, 798, act, 0, -9.6, -9.6, 2, 6.0, 12.135693, 50, 667, 0, -0.523599, 221, 500, 0, -9.6, 0.5, 500, 4043374, 4.0, 4.0, -0.034907, 16.062683, 303, 122, diff, 0, 17.63348, 1, 4048605, -9.6, 3000, same
264, 0, 0.5, 0, retino, PP01.asc, 545, act, 0, -9.6, -9.6, 3, 6.0, 6.865349, 50, 775, 0, 0.523599, 339, 500, 1, -9.6, 0.5, 500, 4050809, 4.0, 4.0, -0.034907, 9.221543, 304, 47, diff, 0, 13.933932, 0, 4055897, -9.6, 3000, diff
321, 0, 0.5, 1, spatio, PP01.asc, 578, act, 0, -9.6, -9.6, 1, 6.0, 10.505021, 50, 829, 0, -0.523599, 75, 500, 1, -9.6, 0.5, 500, 4057863, 4.0, 4.0, 0.034907, 14.432012, 305, 122, same, 0, 14.432012, 0, 4063036, -9.6, 3000, diff
277, 0, 0.5, 0, retino, PP01.asc, 670, act, 0, -9.6, -9.6, 3, 6.0, 6.924984, 50, 782, 0, -0.523599, 288, 500, 1, -9.6, 0.5, 500, 4066484, 4.0, 4.0, -0.034907, 9.281178, 306, 47, diff, 0, 13.993567, 1, 4071704, -9.6, 3000, diff
212, 0, 0.5, 0, spatio, PP01.asc, 735, mir, 0, -9.6, -9.6, 1, 6.0, 10.172329, 50, 720, 0, -0.523599, 252, 500, 1, -9.6, 0.5, 500, 4075417, 4.0, 4.0, 0.034907, 12.528523, 307, 122, diff, 0, 14.099319, 0, 4080638, -9.6, 3000, diff
-1, 0, 0.5, 1, spatio, PP01.asc, 869, mir, 0, -9.6, -9.6, 0, 6.0, 8.996305, 50, 695, 0, 0.523599, 153, 500, 1, -9.6, 0.5, 500, 4083059, 4.0, 4.0, -0.034907, 12.923296, 308, 47, diff, 0, 11.352499, 0, 4088438, -9.6, 3000, diff
357, 0, 0.5, 1, spatio, PP01.asc, 721, act, 0, -9.6, -9.6, 1, 6.0, 7.181167, 50, 869, 0, -0.523599, 47, 500, 1, -9.6, 0.5, 500, 4090516, 4.0, 4.0, -0.034907, 11.108157, 309, 47, diff, 0, 11.108157, 1, 4095872, -9.6, 3000, diff
154, 0, 0.5, 1, spatio, PP01.asc, 627, mir, 0, -9.6, -9.6, 0, 6.0, 10.819304, 50, 667, 0, -0.523599, 207, 500, 1, -9.6, 0.5, 500, 4097799, 4.0, 4.0, -0.034907, 14.746296, 310, 47, diff, 0, 13.1755, 1, 4102860, -9.6, 3000, diff
328, 0, 0.5, 1, retino, PP01.asc, 650, act, 0, -9.6, -9.6, 2, 6.0, 6.595551, 50, 685, 0, -0.523599, 306, 500, 1, -9.6, 0.5, 500, 4105737, 4.0, 4.0, 0.034907, 10.522543, 311, 122, diff, 0, 12.093339, 0, 4110840, -9.6, 3000, same
433, 0, 0.5, 0, spatio, PP01.asc, 483, mir, 0, -9.6, -9.6, 1, 6.0, 8.757764, 50, 945, 0, 0.523599, 91, 500, 0, -9.6, 0.5, 500, 4112634, 4.0, 4.0, 0.034907, 11.113958, 312, 47, diff, 0, 12.684754, 1, 4117828, -9.6, 3000, diff
227, 0, 0.5, 1, spatio, PP01.asc, 725, mir, 0, -9.6, -9.6, 0, 6.0, 9.623147, 50, 740, 0, 0.523599, 68, 500, 0, -9.6, 0.5, 500, 4120079, 4.0, 4.0, -0.034907, 13.550138, 313, 122, diff, 0, 11.979342, 0, 4125312, -9.6, 3000, diff
165, 0, 0.5, 0, spatio, PP01.asc, 628, act, 0, -9.6, -9.6, 0, 6.0, 6.530739, 50, 678, 0, 0.523599, 52, 500, 1, -9.6, 0.5, 500, 4126346, 4.0, 4.0, 0.034907, 8.886933, 314, 122, diff, 0, 8.886933, 1, 4131421, -9.6, 3000, diff
162, 0, 0.5, 0, retino, PP01.asc, 525, mir, 0, -9.6, -9.6, 2, 6.0, 12.311338, 50, 675, 0, 0.523599, 210, 500, 1, -9.6, 0.5, 500, 4133290, 4.0, 4.0, -0.034907, 14.667533, 315, 47, diff, 0, 17.809126, 0, 4138256, -9.6, 3000, diff
661, 0, 0.5, 0, retino, PP01.asc, 621, mir, 0, -9.6, -9.6, 2, 6.0, 10.991308, 50, 860, 0, -0.523599, 345, 500, 1, -9.6, 0.5, 500, 4139290, 4.0, 4.0, 0.034907, 13.347503, 316, 122, diff, 0, 16.489096, 0, 4144537, -9.6, 3000, same
260, 0, 0.5, 0, spatio, PP01.asc, 597, act, 0, -9.6, -9.6, 0, 6.0, 8.5825, 50, 772, 0, -0.523599, 352, 500, 0, -9.6, 0.5, 500, 4145969, 4.0, 4.0, -0.034907, 10.938696, 317, 122, same, 0, 10.938696, 1, 4151104, -9.6, 3000, diff
309, 0, 0.5, 0, retino, PP01.asc, 471, act, 0, -9.6, -9.6, 3, 6.0, 11.796672, 50, 823, 0, 0.523599, 50, 500, 0, -9.6, 0.5, 500, 4152917, 4.0, 4.0, 0.034907, 14.152866, 318, 47, diff, 0, 18.865255, 1, 4157977, -9.6, 3000, diff
419, 0, 0.5, 1, retino, PP01.asc, 923, mir, 0, -9.6, -9.6, 3, 6.0, 7.062855, 50, 671, 0, -0.523599, 259, 500, 1, -9.6, 0.5, 500, 4159658, 4.0, 4.0, -0.034907, 10.989846, 319, 47, diff, 0, 14.131438, 1, 4165068, -9.6, 3000, diff
342, 0, 0.5, 1, retino, PP01.asc, 799, mir, 0, -9.6, -9.6, 3, 6.0, 10.119596, 50, 857, 1, -0.523599, 39, 500, 1, -9.6, 0.5, 500, 4191977, 4.0, 4.0, 0.034907, 14.046588, 320, 122, same, 0, 17.188181, 0, 4197398, -9.6, 3000, diff
190, 0, 0.5, 0, spatio, PP01.asc, 569, mir, 0, -9.6, -9.6, 1, 6.0, 7.933991, 50, 701, 0, -0.523599, 371, 500, 1, -9.6, 0.5, 500, 4198432, 4.0, 4.0, 0.034907, 10.290185, 321, 122, diff, 0, 11.860982, 0, 4203468, -9.6, 3000, diff
145, 0, 0.5, 1, spatio, PP01.asc, 607, mir, 0, -9.6, -9.6, 0, 6.0, 10.101572, 50, 658, 0, -0.523599, 293, 500, 1, -9.6, 0.5, 500, 4204501, 4.0, 4.0, 0.034907, 14.028563, 322, 122, diff, 0, 12.457767, 0, 4209577, -9.6, 3000, diff
162, 0, 0.5, 1, retino, PP01.asc, 481, mir, 0, -9.6, -9.6, 3, 6.0, 12.090247, 50, 676, 0, -0.523599, 309, 500, 1, -9.6, 0.5, 500, 4210611, 4.0, 4.0, -0.034907, 16.017239, 323, 47, diff, 0, 19.158831, 1, 4215534, -9.6, 3000, diff
165, 0, 0.5, 0, spatio, PP01.asc, 766, act, 0, -9.6, -9.6, 0, 6.0, 8.839451, 50, 678, 0, 0.523599, 172, 500, 1, -9.6, 0.5, 500, 4217119, 4.0, 4.0, -0.034907, 11.195645, 324, 47, diff, 0, 11.195645, 0, 4222330, -9.6, 3000, same
159, 0, 0.5, 1, retino, PP01.asc, 567, mir, 0, -9.6, -9.6, 3, 6.0, 10.055551, 50, 671, 0, -0.523599, 18, 500, 1, -9.6, 0.5, 500, 4224352, 4.0, 4.0, 0.034907, 13.982542, 325, 122, same, 0, 17.124134, 0, 4229356, -9.6, 3000, diff
172, 0, 0.5, 0, retino, PP01.asc, 495, act, 0, -9.6, -9.6, 3, 6.0, 6.343971, 50, 683, 0, -0.523599, 13, 500, 1, -9.6, 0.5, 500, 4231055, 4.0, 4.0, 0.034907, 8.700166, 326, 122, diff, 0, 13.412555, 0, 4236000, -9.6, 3000, diff
232, 0, 0.5, 1, spatio, PP01.asc, 437, mir, 0, -9.6, -9.6, 0, 6.0, 7.201876, 50, 740, 0, 0.523599, 340, 500, 1, -9.6, 0.5, 500, 4237700, 4.0, 4.0, 0.034907, 11.128867, 327, 122, diff, 0, 9.55807, 1, 4242643, -9.6, 3000, diff
180, 0, 0.5, 1, retino, PP01.asc, 539, act, 0, -9.6, -9.6, 2, 6.0, 11.276062, 50, 694, 0, 0.523599, 26, 500, 0, -9.6, 0.5, 500, 4244915, 4.0, 4.0, 0.034907, 15.203053, 328, 47, same, 0, 16.773849, 1, 4249914, -9.6, 3000, same
320, 0, 0.5, 1, spatio, PP01.asc, 571, act, 0, -9.6, -9.6, 1, 6.0, 9.038682, 50, 833, 0, 0.523599, 62, 500, 1, -9.6, 0.5, 500, 4251633, 4.0, 4.0, 0.034907, 12.965673, 329, 122, diff, 0, 12.965673, 1, 4256804, -9.6, 3000, diff
195, 0, 0.5, 0, spatio, PP01.asc, 506, act, 0, -9.6, -9.6, 0, 6.0, 12.250745, 50, 708, 0, -0.523599, 171, 500, 1, -9.6, 0.5, 500, 4258276, 4.0, 4.0, 0.034907, 14.606939, 330, 122, diff, 0, 14.606939, 0, 4263257, -9.6, 3000, diff
297, 0, 0.5, 1, retino, PP01.asc, 631, act, 0, -9.6, -9.6, 2, 6.0, 7.613954, 50, 795, 0, 0.523599, 17, 500, 1, -9.6, 0.5, 500, 4264746, 4.0, 4.0, -0.034907, 11.540945, 331, 47, diff, 0, 13.111741, 0, 4269939, -9.6, 3000, diff
348, 0, 0.5, 0, spatio, PP01.asc, 550, mir, 0, -9.6, -9.6, 1, 6.0, 9.039641, 50, 512, 0, -0.523599, 55, 500, 1, -9.6, 0.5, 500, 4270953, 4.0, 4.0, 0.034907, 11.395836, 332, 122, diff, 0, 12.966632, 0, 4275781, -9.6, 3000, diff
59, 0, 0.5, 1, spatio, PP01.asc, 545, mir, 0, -9.6, -9.6, 0, 6.0, 11.443079, 50, 573, 0, 0.523599, 189, 500, 1, -9.6, 0.5, 500, 4277156, 4.0, 4.0, 0.034907, 15.37007, 333, 122, diff, 0, 13.799273, 1, 4282042, -9.6, 3000, diff
215, 0, 0.5, 0, spatio, PP01.asc, 528, act, 0, -9.6, -9.6, 0, 6.0, 9.205892, 50, 723, 0, -0.523599, 116, 500, 1, -9.6, 0.5, 500, 4283438, 4.0, 4.0, 0.034907, 11.562086, 334, 122, diff, 0, 11.562086, 0, 4288457, -9.6, 3000, same
178, 0, 0.5, 1, spatio, PP01.asc, 858, act, 0, -9.6, -9.6, 1, 6.0, 10.379998, 50, 529, 0, 0.523599, 66, 500, 1, -9.6, 0.5, 500, 4289871, 4.0, 4.0, -0.034907, 14.306989, 335, 47, same, 0, 14.306989, 0, 4295025, -9.6, 3000, diff
186, 0, 0.5, 0, retino, PP01.asc, 476, act, 0, -9.6, -9.6, 3, 6.0, 6.718082, 50, 698, 0, 0.523599, 302, 500, 1, -9.6, 0.5, 500, 4296591, 4.0, 4.0, -0.034907, 9.074277, 336, 47, diff, 0, 13.786666, 0, 4301533, -9.6, 3000, diff
223, 0, 0.5, 0, retino, PP01.asc, 616, act, 0, -9.6, -9.6, 3, 6.0, 6.454804, 50, 732, 0, 0.523599, 11, 500, 1, -9.6, 0.5, 500, 4302833, 4.0, 4.0, -0.034907, 8.810999, 337, 47, diff, 0, 13.523388, 0, 4307948, -9.6, 3000, diff
499, 0, 0.5, 1, spatio, PP01.asc, 680, mir, 0, -9.6, -9.6, 0, 6.0, 9.617203, 50, 612, 0, 0.523599, 258, 500, 1, -9.6, 0.5, 500, 4309647, 4.0, 4.0, -0.034907, 13.544193, 338, 47, diff, 0, 11.973397, 0, 4314706, -9.6, 3000, diff
199, 0, 0.5, 1, spatio, PP01.asc, 604, mir, 0, -9.6, -9.6, 0, 6.0, 6.553558, 50, 709, 0, -0.523599, 348, 500, 1, -9.6, 0.5, 500, 4316576, 4.0, 4.0, -0.034907, 10.480549, 339, 47, diff, 0, 8.909752, 1, 4321656, -9.6, 3000, diff
297, 0, 0.5, 0, spatio, PP01.asc, 569, mir, 0, -9.6, -9.6, 1, 6.0, 8.997072, 50, 810, 0, -0.523599, 20, 500, 1, -9.6, 0.5, 500, 4325114, 4.0, 4.0, 0.034907, 11.353267, 340, 122, diff, 0, 12.924063, 0, 4330263, -9.6, 3000, diff
84, 0, 0.5, 0, retino, PP01.asc, 519, mir, 0, -9.6, -9.6, 2, 6.0, 12.087371, 50, 597, 1, 0.523599, 158, 500, 1, -9.6, 0.5, 500, 4331297, 4.0, 4.0, -0.034907, 14.443565, 341, 47, diff, 0, 17.585157, 0, 4336181, -9.6, 3000, diff
240, 0, 0.5, 0, retino, PP01.asc, 560, mir, 0, -9.6, -9.6, 2, 6.0, 8.357766, 50, 743, 0, -0.523599, 315, 500, 1, -9.6, 0.5, 500, 4338145, 4.0, 4.0, 0.034907, 10.713961, 342, 122, diff, 0, 13.855554, 0, 4343283, -9.6, 3000, diff
211, 0, 0.5, 1, retino, PP01.asc, 663, mir, 0, -9.6, -9.6, 3, 6.0, 9.711737, 50, 724, 0, -0.523599, 59, 500, 0, -9.6, 0.5, 500, 4345305, 4.0, 4.0, 0.034907, 13.638728, 343, 47, same, 0, 16.780321, 0, 4350462, -9.6, 3000, diff
205, 0, 0.5, 0, spatio, PP01.asc, 514, mir, 0, -9.6, -9.6, 1, 6.0, 10.324198, 50, 719, 0, 0.523599, 131, 500, 1, -9.6, 0.5, 500, 4351496, 4.0, 4.0, -0.034907, 12.680392, 344, 47, diff, 0, 14.251188, 0, 4356495, -9.6, 3000, diff
176, 0, 0.5, 1, retino, PP01.asc, 494, mir, 0, -9.6, -9.6, 3, 6.0, 6.740517, 50, 687, 0, -0.523599, 336, 500, 1, -9.6, 0.5, 500, 4358269, 4.0, 4.0, -0.034907, 10.667508, 345, 47, diff, 0, 13.809101, 1, 4363216, -9.6, 3000, diff
334, 0, 0.5, 1, spatio, PP01.asc, 668, mir, 0, -9.6, -9.6, 0, 6.0, 6.663624, 50, 682, 0, 0.523599, 23, 500, 1, -9.6, 0.5, 500, 4364857, 4.0, 4.0, 0.034907, 10.590615, 346, 122, diff, 0, 9.019818, 1, 4369974, -9.6, 3000, diff
268, 0, 0.5, 0, retino, PP01.asc, 664, mir, 0, -9.6, -9.6, 2, 6.0, 10.456699, 50, 783, 0, -0.523599, 253, 500, 1, -9.6, 0.5, 500, 4371939, 4.0, 4.0, -0.034907, 12.812894, 347, 47, diff, 0, 15.954487, 1, 4377153, -9.6, 3000, same
294, 0, 0.5, 1, spatio, PP01.asc, 710, mir, 0, -9.6, -9.6, 0, 6.0, 9.634269, 50, 808, 0, -0.523599, 130, 500, 0, -9.6, 0.5, 500, 4378387, 4.0, 4.0, -0.034907, 13.561259, 348, 122, diff, 0, 11.990463, 1, 4383719, -9.6, 3000, diff
159, 0, 0.5, 0, spatio, PP01.asc, 714, act, 0, -9.6, -9.6, 0, 6.0, 6.294115, 50, 672, 0, 0.523599, 237, 500, 1, -9.6, 0.5, 500, 4384828, 4.0, 4.0, 0.034907, 8.65031, 349, 122, diff, 0, 8.65031, 1, 4389981, -9.6, 3000, diff
57, 0, 0.5, 0, retino, PP01.asc, 645, mir, 0, -9.6, -9.6, 2, 6.0, 9.240407, 50, 572, 1, -0.523599, 64, 500, 1, -9.6, 0.5, 500, 4391831, 4.0, 4.0, -0.034907, 11.596601, 350, 47, same, 0, 14.738194, 1, 4396816, -9.6, 3000, diff
271, 0, 0.5, 0, retino, PP01.asc, 573, mir, 0, -9.6, -9.6, 2, 6.0, 8.617017, 50, 759, 0, 0.523599, 149, 500, 1, -9.6, 0.5, 500, 4398629, 4.0, 4.0, -0.034907, 10.973211, 351, 47, diff, 0, 14.114804, 0, 4403728, -9.6, 3000, diff
160, 0, 0.5, 0, retino, PP01.asc, 641, act, 0, -9.6, -9.6, 3, 6.0, 11.928023, 50, 675, 0, 0.523599, 211, 500, 0, -9.6, 0.5, 500, 4405559, 4.0, 4.0, 0.034907, 14.284218, 352, 47, diff, 0, 18.996607, 1, 4410639, -9.6, 3000, diff
195, 0, 0.5, 1, spatio, PP01.asc, 589, act, 0, -9.6, -9.6, 1, 6.0, 6.307346, 50, 709, 0, -0.523599, 366, 500, 1, -9.6, 0.5, 500, 4413326, 4.0, 4.0, 0.034907, 10.234337, 353, 122, diff, 0, 10.234337, 0, 4418390, -9.6, 3000, same
353, 0, 0.5, 0, retino, PP01.asc, 641, mir, 0, -9.6, -9.6, 2, 6.0, 8.231976, 50, 786, 0, 0.523599, 328, 500, 1, -9.6, 0.5, 500, 4420259, 4.0, 4.0, 0.034907, 10.58817, 354, 122, diff, 0, 13.729763, 1, 4425454, -9.6, 3000, diff
237, 0, 0.5, 1, retino, PP01.asc, 614, act, 0, -9.6, -9.6, 2, 6.0, 12.514405, 50, 749, 0, 0.523599, 214, 500, 1, -9.6, 0.5, 500, 4429261, 4.0, 4.0, -0.034907, 16.441397, 355, 47, diff, 0, 18.012192, 0, 4434389, -9.6, 3000, same
221, 0, 0.5, 1, spatio, PP01.asc, 693, act, 0, -9.6, -9.6, 1, 6.0, 11.093896, 50, 734, 0, -0.523599, 42, 500, 1, -9.6, 0.5, 500, 4436602, 4.0, 4.0, 0.034907, 15.020886, 356, 122, same, 0, 15.020886, 0, 4441796, -9.6, 3000, diff
222, 0, 0.5, 1, retino, PP01.asc, 501, act, 0, -9.6, -9.6, 2, 6.0, 7.394396, 50, 731, 0, 0.523599, 198, 500, 1, -9.6, 0.5, 500, 4442830, 4.0, 4.0, -0.034907, 11.321387, 357, 47, diff, 0, 12.892184, 0, 4447830, -9.6, 3000, diff
219, 0, 0.5, 0, spatio, PP01.asc, 585, act, 0, -9.6, -9.6, 0, 6.0, 9.895437, 50, 728, 0, -0.523599, 233, 500, 1, -9.6, 0.5, 500, 4449815, 4.0, 4.0, 0.034907, 12.251632, 358, 122, diff, 0, 12.251632, 0, 4454894, -9.6, 3000, same
207, 0, 0.5, 1, spatio, PP01.asc, 750, mir, 0, -9.6, -9.6, 0, 6.0, 8.777131, 50, 717, 0, -0.523599, 145, 500, 1, -9.6, 0.5, 500, 4457028, 4.0, 4.0, 0.034907, 12.704122, 359, 122, diff, 0, 11.133326, 0, 4462262, -9.6, 3000, diff
206, 0, 0.5, 0, spatio, PP01.asc, 549, act, 0, -9.6, -9.6, 0, 6.0, 11.877592, 50, 720, 0, 0.523599, 311, 500, 1, -9.6, 0.5, 500, 4463297, 4.0, 4.0, 0.034907, 14.233787, 360, 122, diff, 0, 14.233787, 1, 4468333, -9.6, 3000, diff
210, 0, 0.5, 0, retino, PP01.asc, 456, mir, 0, -9.6, -9.6, 2, 6.0, 10.255549, 50, 722, 0, -0.523599, 125, 500, 0, -9.6, 0.5, 500, 4469652, 4.0, 4.0, -0.034907, 12.611744, 361, 122, diff, 0, 15.753337, 1, 4474596, -9.6, 3000, same
151, 0, 0.5, 1, retino, PP01.asc, 831, mir, 0, -9.6, -9.6, 3, 6.0, 12.479698, 50, 663, 0, 0.523599, 358, 500, 0, -9.6, 0.5, 500, 4476666, 4.0, 4.0, 0.034907, 16.406689, 362, 47, diff, 0, 19.548283, 1, 4481927, -9.6, 3000, diff
269, 0, 0.5, 0, spatio, PP01.asc, 541, mir, 0, -9.6, -9.6, 1, 6.0, 8.175217, 50, 755, 0, -0.523599, 121, 500, 1, -9.6, 0.5, 500, 4483701, 4.0, 4.0, 0.034907, 10.531411, 363, 122, diff, 0, 12.102207, 0, 4488762, -9.6, 3000, diff
177, 0, 0.5, 0, spatio, PP01.asc, 607, mir, 0, -9.6, -9.6, 1, 6.0, 12.093315, 50, 690, 0, 0.523599, 187, 500, 1, -9.6, 0.5, 500, 4490610, 4.0, 4.0, 0.034907, 14.44951, 364, 122, diff, 0, 16.020306, 1, 4495673, -9.6, 3000, diff
243, 0, 0.5, 1, spatio, PP01.asc, 494, mir, 0, -9.6, -9.6, 0, 6.0, 8.48835, 50, 745, 0, 0.523599, 123, 500, 1, -9.6, 0.5, 500, 4497809, 4.0, 4.0, 0.034907, 12.415341, 365, 122, diff, 0, 10.844544, 1, 4502814, -9.6, 3000, diff
213, 0, 0.5, 0, retino, PP01.asc, 610, mir, 0, -9.6, -9.6, 2, 6.0, 11.442504, 50, 724, 0, 0.523599, 347, 500, 0, -9.6, 0.5, 500, 4504778, 4.0, 4.0, 0.034907, 13.798698, 366, 47, diff, 0, 16.94029, 1, 4509880, -9.6, 3000, same
200, 0, 0.5, 1, retino, PP01.asc, 673, act, 0, -9.6, -9.6, 2, 6.0, 8.971185, 50, 710, 0, -0.523599, 177, 500, 1, -9.6, 0.5, 500, 4510914, 4.0, 4.0, -0.034907, 12.898176, 367, 47, same, 0, 14.468972, 1, 4516065, -9.6, 3000, diff
218, 0, 0.5, 0, spatio, PP01.asc, 618, mir, 0, -9.6, -9.6, 1, 6.0, 6.911561, 50, 731, 0, -0.523599, 346, 500, 1, -9.6, 0.5, 500, 4517593, 4.0, 4.0, 0.034907, 9.267756, 368, 122, diff, 0, 10.838552, 0, 4522709, -9.6, 3000, diff
205, 0, 0.5, 0, spatio, PP01.asc, 594, mir, 0, -9.6, -9.6, 1, 6.0, 11.280663, 50, 718, 0, 0.523599, 44, 500, 1, -9.6, 0.5, 500, 4524503, 4.0, 4.0, -0.034907, 13.636858, 369, 47, diff, 0, 15.207655, 0, 4529582, -9.6, 3000, diff
-1, 0, 0.5, 0, retino, PP01.asc, 822, mir, 0, -9.6, -9.6, 2, 6.0, 8.55949, 50, 723, 0, 0.523599, 108, 500, 0, -9.6, 0.5, 500, 4531527, 4.0, 4.0, 0.034907, 10.915685, 370, 47, diff, 0, 14.057278, 1, 4536837, -9.6, 3000, diff
195, 0, 0.5, 0, spatio, PP01.asc, 628, act, 0, -9.6, -9.6, 0, 6.0, 11.63675, 50, 709, 0, -0.523599, 129, 500, 1, -9.6, 0.5, 500, 4539752, 4.0, 4.0, -0.034907, 13.992945, 371, 47, diff, 0, 13.992945, 1, 4544855, -9.6, 3000, diff
288, 0, 0.5, 0, retino, PP01.asc, 629, act, 0, -9.6, -9.6, 3, 6.0, 9.000907, 50, 800, 0, 0.523599, 378, 500, 0, -9.6, 0.5, 500, 4546458, 4.0, 4.0, 0.034907, 11.357101, 372, 47, same, 0, 16.06949, 1, 4551652, -9.6, 3000, same
261, 0, 0.5, 1, spatio, PP01.asc, 500, act, 0, -9.6, -9.6, 1, 6.0, 9.8893, 50, 776, 0, 0.523599, 344, 500, 1, -9.6, 0.5, 500, 4553522, 4.0, 4.0, 0.034907, 13.816292, 373, 122, diff, 0, 13.816292, 1, 4558564, -9.6, 3000, diff
221, 0, 0.5, 0, retino, PP01.asc, 595, mir, 0, -9.6, -9.6, 2, 6.0, 8.679337, 50, 602, 0, -0.523599, 331, 500, 1, -9.6, 0.5, 500, 4560626, 4.0, 4.0, 0.034907, 11.035531, 374, 122, same, 0, 14.177124, 0, 4565590, -9.6, 3000, diff
13, 0, 0.5, 1, spatio, PP01.asc, 597, mir, 0, -9.6, -9.6, 0, 6.0, 6.298526, 50, 526, 0, 0.523599, 307, 500, 0, -9.6, 0.5, 500, 4568145, 4.0, 4.0, 0.034907, 10.225516, 375, 47, diff, 0, 8.65472, 1, 4573035, -9.6, 3000, diff
193, 0, 0.5, 1, spatio, PP01.asc, 507, mir, 0, -9.6, -9.6, 0, 6.0, 10.100421, 50, 536, 0, 0.523599, 236, 500, 1, -9.6, 0.5, 500, 4574830, 4.0, 4.0, -0.034907, 14.027412, 376, 47, diff, 0, 12.456615, 0, 4579641, -9.6, 3000, diff
175, 0, 0.5, 0, retino, PP01.asc, 543, act, 0, -9.6, -9.6, 3, 6.0, 6.83927, 50, 689, 0, 0.523599, 76, 500, 1, -9.6, 0.5, 500, 4581058, 4.0, 4.0, -0.034907, 9.195465, 377, 47, diff, 0, 13.907854, 0, 4586056, -9.6, 3000, diff
180, 0, 0.5, 0, spatio, PP01.asc, 771, act, 0, -9.6, -9.6, 0, 6.0, 6.309264, 50, 693, 0, 0.523599, 298, 500, 0, -9.6, 0.5, 500, 4588002, 4.0, 4.0, 0.034907, 8.665459, 378, 47, diff, 0, 8.665459, 1, 4593234, -9.6, 3000, diff
190, 0, 0.5, 0, spatio, PP01.asc, 556, act, 0, -9.6, -9.6, 0, 6.0, 9.217972, 50, 681, 0, -0.523599, 84, 500, 1, -9.6, 0.5, 500, 4594875, 4.0, 4.0, -0.034907, 11.574166, 379, 47, diff, 0, 11.574166, 1, 4599879, -9.6, 3000, same
208, 0, 0.5, 1, retino, PP01.asc, 826, act, 0, -9.6, -9.6, 2, 6.0, 11.402811, 50, 721, 0, -0.523599, 157, 500, 1, -9.6, 0.5, 500, 4604561, 4.0, 4.0, 0.034907, 15.329802, 380, 122, same, 0, 16.900599, 0, 4609882, -9.6, 3000, same
249, 0, 0.5, 1, retino, PP01.asc, 507, act, 0, -9.6, -9.6, 2, 6.0, 7.702736, 50, 727, 0, -0.523599, 312, 500, 1, -9.6, 0.5, 500, 4611258, 4.0, 4.0, -0.034907, 11.629727, 381, 47, diff, 0, 13.200523, 1, 4616259, -9.6, 3000, diff
175, 0, 0.5, 1, retino, PP01.asc, 681, act, 0, -9.6, -9.6, 2, 6.0, 9.595726, 50, 687, 0, -0.523599, 215, 500, 0, -9.6, 0.5, 500, 4617921, 4.0, 4.0, 0.034907, 13.522717, 382, 47, same, 0, 15.093513, 0, 4623056, -9.6, 3000, diff
191, 0, 0.5, 1, retino, PP01.asc, 685, mir, 0, -9.6, -9.6, 3, 6.0, 10.509431, 50, 703, 0, -0.523599, 383, 500, 1, -9.6, 0.5, 500, 4624906, 4.0, 4.0, -0.034907, 14.436422, 383, 47, diff, 0, 17.578014, 1, 4630061, -9.6, 3000, same
222, 0, 0.5, 0, spatio, PP04.asc, 534, act, 0, -9.6, -9.6, 0, 6.0, 10.550083, 50, 738, 0, -0.523599, 1, 500, 1, -9.6, 0.5, 500, 7558273, 4.0, 4.0, -0.034907, 12.906278, 0, 47, diff, 0, 12.906278, 1, 7563357, -9.6, 3000, diff
202, 0, 0.5, 0, spatio, PP04.asc, 600, act, 0, -9.6, -9.6, 0, 6.0, 6.461708, 50, 506, 0, 0.523599, 330, 500, 1, -9.6, 0.5, 500, 7564812, 4.0, 4.0, -0.034907, 8.817903, 1, 47, diff, 0, 8.817903, 0, 7569685, -9.6, 3000, diff
212, 0, 0.5, 1, retino, PP04.asc, 58, act, 0, -9.6, -9.6, 2, 6.0, 6.385581, 50, 726, 1, -0.523599, 90, 500, 1, -9.6, 0.5, 500, 7571290, 4.0, 4.0, 0.034907, 10.312572, 2, 122, diff, 0, 11.883368, 0, 7575888, -9.6, 3000, same
187, 0, 0.5, 0, spatio, PP04.asc, 68, mir, 0, -9.6, -9.6, 1, 6.0, 9.923817, 50, 699, 0, 0.523599, 232, 500, 1, -9.6, 0.5, 500, 7578824, 4.0, 4.0, 0.034907, 12.280011, 3, 122, diff, 0, 13.850807, 1, 7583369, -9.6, 3000, diff
841, 0, 0.5, 1, spatio, PP04.asc, 715, mir, 0, -9.6, -9.6, 0, 6.0, 8.34185, 50, 1234, 1, -0.523599, 126, 500, 1, -9.6, 0.5, 500, 7584688, 4.0, 4.0, 0.034907, 12.268841, 4, 122, diff, 0, 10.698045, 0, 7590447, -9.6, 3000, diff
161, 0, 0.5, 0, retino, PP04.asc, 530, act, 0, -9.6, -9.6, 3, 6.0, 10.937809, 50, 676, 0, -0.523599, 176, 500, 0, -9.6, 0.5, 500, 7591463, 4.0, 4.0, -0.034907, 13.294003, 5, 122, diff, 0, 18.006392, 1, 7596487, -9.6, 3000, same
212, 0, 0.5, 0, retino, PP04.asc, 608, act, 0, -9.6, -9.6, 3, 6.0, 8.956995, 50, 724, 0, 0.523599, 151, 500, 1, -9.6, 0.5, 500, 7598785, 4.0, 4.0, 0.034907, 11.31319, 6, 122, same, 0, 16.025579, 1, 7603933, -9.6, 3000, same
235, 0, 0.5, 1, spatio, PP04.asc, 822, mir, 0, -9.6, -9.6, 0, 6.0, 6.590566, 50, 749, 0, -0.523599, 141, 500, 1, -9.6, 0.5, 500, 7604968, 4.0, 4.0, -0.034907, 10.517557, 7, 47, diff, 0, 8.94676, 1, 7610306, -9.6, 3000, diff
141, 0, 0.5, 1, spatio, PP04.asc, 761, act, 0, -9.6, -9.6, 1, 6.0, 11.291977, 50, 655, 0, -0.523599, 263, 500, 1, -9.6, 0.5, 500, 7611644, 4.0, 4.0, 0.034907, 15.218968, 8, 122, same, 0, 15.218968, 0, 7616829, -9.6, 3000, diff
212, 0, 0.5, 0, spatio, PP04.asc, 469, act, 0, -9.6, -9.6, 0, 6.0, 8.256712, 50, 724, 0, -0.523599, 124, 500, 0, -9.6, 0.5, 500, 7617864, 4.0, 4.0, 0.034907, 10.612906, 9, 47, same, 0, 10.612906, 0, 7622872, -9.6, 3000, diff
212, 0, 0.5, 0, retino, PP04.asc, 648, mir, 0, -9.6, -9.6, 2, 6.0, 9.991121, 50, 726, 0, 0.523599, 17, 500, 1, -9.6, 0.5, 500, 7623906, 4.0, 4.0, 0.034907, 12.347317, 10, 122, same, 0, 15.488909, 1, 7629095, -9.6, 3000, diff
212, 0, 0.5, 1, spatio, PP04.asc, 578, act, 0, -9.6, -9.6, 1, 6.0, 6.541477, 50, 548, 0, -0.523599, 22, 500, 1, -9.6, 0.5, 500, 7630110, 4.0, 4.0, 0.034907, 10.468468, 11, 122, diff, 0, 10.468468, 0, 7635052, -9.6, 3000, same
165, 0, 0.5, 0, retino, PP04.asc, 725, act, 0, -9.6, -9.6, 3, 6.0, 12.376534, 50, 678, 0, -0.523599, 346, 500, 1, -9.6, 0.5, 500, 7636087, 4.0, 4.0, -0.034907, 14.732729, 12, 47, diff, 0, 19.445118, 1, 7641266, -9.6, 3000, diff
206, 0, 0.5, 0, retino, PP04.asc, 843, mir, 0, -9.6, -9.6, 2, 6.0, 7.064197, 50, 717, 0, 0.523599, 96, 500, 1, -9.6, 0.5, 500, 7642301, 4.0, 4.0, -0.034907, 9.420392, 13, 47, diff, 0, 12.561984, 0, 7647641, -9.6, 3000, diff
165, 0, 0.5, 1, spatio, PP04.asc, 1048, mir, 0, -9.6, -9.6, 0, 6.0, 11.214317, 50, 677, 0, 0.523599, 338, 500, 0, -9.6, 0.5, 500, 7648676, 4.0, 4.0, 0.034907, 15.141308, 14, 47, diff, 0, 13.570512, 1, 7654168, -9.6, 3000, diff
181, 0, 0.5, 1, retino, PP04.asc, 810, mir, 0, -9.6, -9.6, 3, 6.0, 9.574825, 50, 695, 0, -0.523599, 357, 500, 1, -9.6, 0.5, 500, 7655808, 4.0, 4.0, 0.034907, 13.501816, 15, 122, same, 0, 16.643408, 0, 7661089, -9.6, 3000, diff
239, 0, 0.5, 0, spatio, PP04.asc, 1308, act, 0, -9.6, -9.6, 0, 6.0, 6.529205, 50, 752, 1, -0.523599, 4, 500, 0, -9.6, 0.5, 500, 7662617, 4.0, 4.0, -0.034907, 8.8854, 16, 122, diff, 0, 8.8854, 1, 7668495, -9.6, 3000, diff
227, 0, 0.5, 0, retino, PP04.asc, 975, mir, 0, -9.6, -9.6, 2, 6.0, 7.773301, 50, 741, 0, 0.523599, 335, 500, 1, -9.6, 0.5, 500, 7669531, 4.0, 4.0, 0.034907, 10.129496, 17, 122, diff, 0, 13.271089, 1, 7675062, -9.6, 3000, diff
152, 0, 0.5, 1, spatio, PP04.asc, 943, act, 0, -9.6, -9.6, 1, 6.0, 11.017386, 50, 665, 0, 0.523599, 182, 500, 1, -9.6, 0.5, 500, 7676096, 4.0, 4.0, 0.034907, 14.944377, 18, 122, same, 0, 14.944377, 1, 7681519, -9.6, 3000, diff
208, 0, 0.5, 1, spatio, PP04.asc, 1479, act, 0, -9.6, -9.6, 1, 6.0, 7.777904, 50, 720, 0, -0.523599, 250, 500, 1, -9.6, 0.5, 500, 7682915, 4.0, 4.0, 0.034907, 11.704894, 19, 122, diff, 0, 11.704894, 0, 7688930, -9.6, 3000, diff
163, 0, 0.5, 1, retino, PP04.asc, 696, mir, 0, -9.6, -9.6, 3, 6.0, 10.531674, 50, 677, 0, -0.523599, 67, 500, 1, -9.6, 0.5, 500, 7689964, 4.0, 4.0, -0.034907, 14.458666, 20, 47, diff, 0, 17.600258, 1, 7695153, -9.6, 3000, same
161, 0, 0.5, 1, spatio, PP04.asc, 810, mir, 0, -9.6, -9.6, 0, 6.0, 9.557568, 50, 674, 0, -0.523599, 356, 500, 1, -9.6, 0.5, 500, 7696609, 4.0, 4.0, 0.034907, 13.484558, 21, 122, diff, 0, 11.913762, 0, 7701911, -9.6, 3000, diff
171, 0, 0.5, 0, retino, PP04.asc, 668, mir, 0, -9.6, -9.6, 2, 6.0, 8.222388, 50, 688, 0, -0.523599, 14, 500, 1, -9.6, 0.5, 500, 7703231, 4.0, 4.0, -0.034907, 10.578583, 22, 47, diff, 0, 13.720175, 1, 7708361, -9.6, 3000, diff
187, 0, 0.5, 0, spatio, PP04.asc, 737, act, 0, -9.6, -9.6, 0, 6.0, 10.651904, 50, 701, 0, -0.523599, 255, 500, 0, -9.6, 0.5, 500, 7709410, 4.0, 4.0, 0.034907, 13.008099, 23, 47, diff, 0, 13.008099, 0, 7714614, -9.6, 3000, diff
46, 0, 0.5, 1, retino, PP04.asc, 1125, mir, 0, -9.6, -9.6, 3, 6.0, 6.619713, 50, 580, 0, -0.523599, 371, 500, 1, -9.6, 0.5, 500, 7715858, 4.0, 4.0, 0.034907, 10.546703, 24, 122, diff, 0, 13.688296, 0, 7721381, -9.6, 3000, diff
236, 0, 0.5, 0, retino, PP04.asc, 744, mir, 0, -9.6, -9.6, 2, 6.0, 8.455176, 50, 746, 0, 0.523599, 299, 500, 1, -9.6, 0.5, 500, 7722416, 4.0, 4.0, 0.034907, 10.811371, 25, 122, diff, 0, 13.952964, 1, 7727721, -9.6, 3000, diff
218, 0, 0.5, 0, spatio, PP04.asc, 494, act, 0, -9.6, -9.6, 0, 6.0, 12.257456, 50, 732, 0, -0.523599, 270, 500, 1, -9.6, 0.5, 500, 7729784, 4.0, 4.0, 0.034907, 14.61365, 26, 122, diff, 0, 14.61365, 0, 7734823, -9.6, 3000, diff
187, 0, 0.5, 0, retino, PP04.asc, 867, mir, 0, -9.6, -9.6, 2, 6.0, 10.804731, 50, 700, 0, -0.523599, 105, 500, 0, -9.6, 0.5, 500, 7736580, 4.0, 4.0, -0.034907, 13.160926, 27, 122, diff, 0, 16.302519, 1, 7741917, -9.6, 3000, same
196, 0, 0.5, 0, retino, PP04.asc, 674, act, 0, -9.6, -9.6, 3, 6.0, 9.246735, 50, 710, 0, -0.523599, 86, 500, 1, -9.6, 0.5, 500, 7742952, 4.0, 4.0, 0.034907, 11.602929, 28, 122, same, 0, 16.315319, 0, 7748152, -9.6, 3000, same
210, 0, 0.5, 0, spatio, PP04.asc, 911, act, 0, -9.6, -9.6, 0, 6.0, 7.603024, 50, 653, 0, -0.523599, 42, 500, 1, -9.6, 0.5, 500, 7749187, 4.0, 4.0, -0.034907, 9.959219, 29, 47, same, 0, 9.959219, 1, 7754517, -9.6, 3000, diff
202, 0, 0.5, 0, spatio, PP04.asc, 726, mir, 0, -9.6, -9.6, 1, 6.0, 9.693137, 50, 716, 0, 0.523599, 70, 500, 1, -9.6, 0.5, 500, 7755722, 4.0, 4.0, 0.034907, 12.049332, 30, 122, diff, 0, 13.620128, 1, 7760977, -9.6, 3000, diff
168, 0, 0.5, 1, retino, PP04.asc, 757, mir, 0, -9.6, -9.6, 3, 6.0, 11.700412, 50, 680, 1, 0.523599, 145, 500, 1, -9.6, 0.5, 500, 7762448, 4.0, 4.0, -0.034907, 15.627403, 31, 47, diff, 0, 18.768995, 0, 7767700, -9.6, 3000, same
183, 0, 0.5, 1, retino, PP04.asc, 790, act, 0, -9.6, -9.6, 2, 6.0, 7.676082, 50, 696, 0, 0.523599, 170, 500, 0, -9.6, 0.5, 500, 7768867, 4.0, 4.0, 0.034907, 11.603073, 32, 47, diff, 0, 13.17387, 1, 7774119, -9.6, 3000, diff
245, 0, 0.5, 0, retino, PP04.asc, 1395, mir, 0, -9.6, -9.6, 2, 6.0, 12.125338, 50, 757, 0, 0.523599, 349, 500, 1, -9.6, 0.5, 500, 7775875, 4.0, 4.0, 0.034907, 14.481532, 33, 122, diff, 0, 17.623125, 1, 7781794, -9.6, 3000, diff
162, 0, 0.5, 0, retino, PP04.asc, 3034, act, 0, -9.6, -9.6, 3, 6.0, 11.562349, 50, 676, 1, -0.523599, 119, 500, 1, -9.6, 0.5, 500, 7787295, 4.0, 4.0, 0.034907, 13.918544, 34, 122, diff, 0, 18.630934, 0, 7794819, -9.6, 3000, same
264, 0, 0.5, 0, spatio, PP04.asc, 71, mir, 0, -9.6, -9.6, 1, 6.0, 8.590746, 50, 533, 0, -0.523599, 118, 500, 1, -9.6, 0.5, 500, 7799826, 4.0, 4.0, 0.034907, 10.94694, 35, 122, diff, 0, 12.517737, 0, 7804245, -9.6, 3000, diff
261, 0, 0.5, 1, retino, PP04.asc, 73, mir, 0, -9.6, -9.6, 3, 6.0, 6.662857, 50, 771, 1, 0.523599, 303, 500, 1, -9.6, 0.5, 500, 7805356, 4.0, 4.0, 0.034907, 10.589849, 36, 122, diff, 0, 13.731441, 1, 7810016, -9.6, 3000, diff
179, 0, 0.5, 0, retino, PP04.asc, 2178, act, 0, -9.6, -9.6, 3, 6.0, 10.556794, 50, 693, 1, -0.523599, 65, 500, 1, -9.6, 0.5, 500, 7811849, 4.0, 4.0, 0.034907, 12.912989, 37, 122, diff, 0, 17.625378, 0, 7818535, -9.6, 3000, same
216, 0, 0.5, 0, spatio, PP04.asc, 63, mir, 0, -9.6, -9.6, 1, 6.0, 7.340898, 50, 729, 0, -0.523599, 59, 500, 1, -9.6, 0.5, 500, 7822058, 4.0, 4.0, 0.034907, 9.697092, 38, 122, diff, 0, 11.267888, 0, 7826617, -9.6, 3000, diff
185, 0, 0.5, 0, retino, PP04.asc, 800, act, 0, -9.6, -9.6, 3, 6.0, 10.89639, 50, 698, 1, 0.523599, 79, 500, 1, -9.6, 0.5, 500, 7827651, 4.0, 4.0, 0.034907, 13.252584, 39, 122, diff, 0, 17.964973, 1, 7832963, -9.6, 3000, same
288, 0, 0.5, 1, retino, PP04.asc, 703, mir, 0, -9.6, -9.6, 3, 6.0, 7.617789, 50, 747, 0, 0.523599, 32, 500, 1, -9.6, 0.5, 500, 7836490, 4.0, 4.0, -0.034907, 11.54478, 40, 47, diff, 0, 14.686373, 0, 7841707, -9.6, 3000, diff
211, 0, 0.5, 1, spatio, PP04.asc, 540, act, 0, -9.6, -9.6, 1, 6.0, 10.401091, 50, 724, 0, -0.523599, 123, 500, 1, -9.6, 0.5, 500, 7843011, 4.0, 4.0, 0.034907, 14.328081, 41, 122, same, 0, 14.328081, 0, 7848043, -9.6, 3000, diff
164, 0, 0.5, 0, retino, PP04.asc, 668, act, 0, -9.6, -9.6, 3, 6.0, 8.633316, 50, 678, 0, 0.523599, 6, 500, 1, -9.6, 0.5, 500, 7851091, 4.0, 4.0, -0.034907, 10.989511, 42, 47, same, 0, 15.7019, 0, 7856252, -9.6, 3000, diff
150, 0, 0.5, 1, spatio, PP04.asc, 559, act, 0, -9.6, -9.6, 1, 6.0, 11.315947, 50, 663, 0, 0.523599, 235, 500, 1, -9.6, 0.5, 500, 7857285, 4.0, 4.0, 0.034907, 15.242937, 43, 122, same, 0, 15.242937, 1, 7862330, -9.6, 3000, diff
223, 0, 0.5, 0, spatio, PP04.asc, 670, act, 0, -9.6, -9.6, 0, 6.0, 8.538781, 50, 735, 1, -0.523599, 368, 500, 0, -9.6, 0.5, 500, 7863897, 4.0, 4.0, 0.034907, 10.894976, 44, 47, same, 0, 10.894976, 0, 7869116, -9.6, 3000, diff
190, 0, 0.5, 1, retino, PP04.asc, 1370, act, 0, -9.6, -9.6, 2, 6.0, 12.360428, 50, 704, 0, -0.523599, 95, 500, 0, -9.6, 0.5, 500, 7870150, 4.0, 4.0, -0.034907, 16.287418, 45, 122, diff, 0, 17.858215, 1, 7875990, -9.6, 3000, same
207, 0, 0.5, 0, retino, PP04.asc, 573, mir, 0, -9.6, -9.6, 2, 6.0, 9.715956, 50, 720, 0, -0.523599, 150, 500, 1, -9.6, 0.5, 500, 7879631, 4.0, 4.0, 0.034907, 12.07215, 46, 122, same, 0, 15.213743, 0, 7884693, -9.6, 3000, diff
230, 0, 0.5, 1, retino, PP04.asc, 483, mir, 0, -9.6, -9.6, 3, 6.0, 6.451545, 50, 588, 0, -0.523599, 134, 500, 1, -9.6, 0.5, 500, 7885728, 4.0, 4.0, -0.034907, 10.378536, 47, 47, diff, 0, 13.520128, 1, 7890572, -9.6, 3000, diff
185, 0, 0.5, 0, retino, PP04.asc, 136, mir, 0, -9.6, -9.6, 2, 6.0, 9.836377, 50, 507, 1, 0.523599, 190, 500, 0, -9.6, 0.5, 500, 7891608, 4.0, 4.0, -0.034907, 12.192572, 48, 122, same, 0, 15.334164, 0, 7896024, -9.6, 3000, diff
202, 0, 0.5, 0, retino, PP04.asc, 83, mir, 0, -9.6, -9.6, 2, 6.0, 7.476851, 50, 633, 0, 0.523599, 331, 500, 1, -9.6, 0.5, 500, 7897061, 4.0, 4.0, 0.034907, 9.833045, 49, 122, diff, 0, 12.974638, 1, 7901543, -9.6, 3000, diff
180, 0, 0.5, 1, spatio, PP04.asc, 842, mir, 0, -9.6, -9.6, 0, 6.0, 9.226026, 50, 694, 1, 0.523599, 224, 500, 0, -9.6, 0.5, 500, 7902968, 4.0, 4.0, 0.034907, 13.153016, 50, 47, diff, 0, 11.58222, 1, 7908270, -9.6, 3000, diff
208, 0, 0.5, 0, spatio, PP04.asc, 628, mir, 0, -9.6, -9.6, 1, 6.0, 10.064371, 50, 717, 0, -0.523599, 262, 500, 1, -9.6, 0.5, 500, 7909685, 4.0, 4.0, -0.034907, 12.420567, 51, 47, diff, 0, 13.991363, 1, 7914845, -9.6, 3000, diff
225, 0, 0.5, 0, retino, PP04.asc, 545, act, 0, -9.6, -9.6, 3, 6.0, 6.961226, 50, 737, 0, 0.523599, 287, 500, 1, -9.6, 0.5, 500, 7916316, 4.0, 4.0, -0.034907, 9.31742, 52, 47, diff, 0, 14.029809, 0, 7921363, -9.6, 3000, diff
160, 0, 0.5, 0, spatio, PP04.asc, 57, mir, 0, -9.6, -9.6, 1, 6.0, 12.153909, 50, 674, 0, -0.523599, 7, 500, 0, -9.6, 0.5, 500, 7922398, 4.0, 4.0, -0.034907, 14.510103, 53, 122, diff, 0, 16.0809, 1, 7926894, -9.6, 3000, diff
234, 0, 0.5, 0, spatio, PP04.asc, 85, mir, 0, -9.6, -9.6, 1, 6.0, 6.913287, 50, 738, 0, -0.523599, 301, 500, 0, -9.6, 0.5, 500, 7928214, 4.0, 4.0, -0.034907, 9.269482, 54, 122, diff, 0, 10.840278, 1, 7932803, -9.6, 3000, diff
